sep=,
DeviceTag:,Xsens_4,,,,,,,,,,,,,,,,,
FirmwareVersion:,2.2.1,,,,,,,,,,,,,,,,,
AppVersion:,2022.0.1,,,,,,,,,,,,,,,,,
SyncStatus:,Synced,,,,,,,,,,,,,,,,,
OutputRate:,60Hz,,,,,,,,,,,,,,,,,
FilterProfile:,General,,,,,,,,,,,,,,,,,
Measurement Mode:,Sensor fusion Mode - Complete (Euler),,,,,,,,,,,,,,,,,
StartTime:,2023-05-17 15:23:43.750 +0200,,,,,,,,,,,,,,,,,
© Xsens Technologies B. V. 2005-2023,,,,,,,,,,,,,,,,,,,

PacketCounter,SampleTimeFine,Euler_X,Euler_Y,Euler_Z,FreeAcc_X,FreeAcc_Y,FreeAcc_Z
1, 3345928314, -91.5556411743164, 42.91514587402344, 81.0953598022461, 0.92577183, -1.4907303, 1.4300508
2, 3345944981, -91.65604400634766, 41.77581024169922, 81.00790405273438, 1.0245849, -1.3294843, 0.7350607
3, 3345961648, -91.8010025024414, 40.694007873535156, 80.92887878417969, 0.7440265, -1.6478392, 0.014483452
4, 3345978315, -92.1065673828125, 39.70108413696289, 80.77557373046875, 0.48445636, -1.6706241, -0.36920452
5, 3345994982, -92.55923461914062, 38.758365631103516, 80.60716247558594, 0.19717643, -1.3588518, -0.6780052
6, 3346011649, -93.2131118774414, 37.845001220703125, 80.46839904785156, -0.3848336, -1.1790526, -0.7822094
7, 3346028316, -94.04987335205078, 36.996604919433594, 80.28489685058594, -0.94767994, -1.0133662, -0.6159725
8, 3346044983, -94.92374420166016, 36.266414642333984, 79.99352264404297, -1.261746, -0.7242164, -0.35648346
9, 3346061650, -95.67001342773438, 35.675167083740234, 79.56629180908203, -1.4434443, -0.6427716, -0.5031252
10, 3346078317, -96.19916534423828, 35.228416442871094, 79.04495239257812, -1.4738413, -0.86231476, -0.8812895
11, 3346094984, -96.56859588623047, 34.898536682128906, 78.53117370605469, -1.6430546, -0.933821, -1.1423807
12, 3346111651, -96.98310852050781, 34.61561965942383, 78.01034545898438, -1.9854527, -0.92226475, -1.2798233
13, 3346128318, -97.4982681274414, 34.33870315551758, 77.41986083984375, -2.184723, -0.8148558, -1.0463858
14, 3346144985, -98.01632690429688, 34.091064453125, 76.72251892089844, -2.1966956, -0.57748705, -0.5122061
15, 3346161652, -98.42120361328125, 33.942596435546875, 75.88204193115234, -2.1758647, -0.20880044, -0.013922691
16, 3346178319, -98.66236877441406, 33.905242919921875, 74.90533447265625, -2.2605784, -0.14824384, 0.24559116
17, 3346194986, -98.76959228515625, 33.968658447265625, 73.86080169677734, -2.2906327, -0.3126468, 0.26996994
18, 3346211653, -98.80712127685547, 34.08736038208008, 72.78771209716797, -2.0761492, -0.20639096, 0.39712524
19, 3346228320, -98.8679428100586, 34.19241714477539, 71.71075439453125, -1.6379312, 0.094139636, 0.51682854
20, 3346244987, -99.01615905761719, 34.29827880859375, 70.62101745605469, -1.2738954, 0.22080018, 0.6456804
21, 3346261654, -99.3114242553711, 34.40962600708008, 69.4935531616211, -1.0973076, 0.15905026, 0.93021584
22, 3346278321, -99.90496063232422, 34.5057373046875, 68.33293151855469, -1.5291805, -0.10528891, 1.1745625
23, 3346294988, -100.72269439697266, 34.64165496826172, 67.02648162841797, -1.95298, -0.9740502, 2.3398247
24, 3346311655, -101.23700714111328, 34.95222091674805, 65.57960510253906, -1.2375576, -0.6506333, 3.467369
25, 3346328322, -101.60208892822266, 35.37408447265625, 64.36041259765625, -0.4139369, 0.65128636, 3.5289135
26, 3346344989, -102.10521697998047, 35.79927062988281, 63.20746612548828, -0.33504614, 0.49882683, 2.9743376
27, 3346361656, -102.4961929321289, 36.21306228637695, 62.016971588134766, -0.32902426, -0.08472281, 3.1498117
28, 3346378323, -102.80767822265625, 36.589473724365234, 60.8373908996582, -0.020414667, -0.17911702, 2.9176998
29, 3346394990, -103.08460998535156, 36.962528228759766, 59.774147033691406, 0.5039789, -0.009459515, 2.3645172
30, 3346411657, -103.34565734863281, 37.327091217041016, 58.90984344482422, 1.003203, 0.5848579, 1.8969641
31, 3346428324, -103.67035675048828, 37.586341857910156, 58.146583557128906, 1.0654109, 0.787484, 1.378293
32, 3346444991, -104.01033782958984, 37.723018646240234, 57.41073989868164, 0.97670627, 0.50735766, 1.0340014
33, 3346461658, -104.37336730957031, 37.750003814697266, 56.685081481933594, 0.7479002, 0.35832927, 0.725276
34, 3346478325, -104.81524658203125, 37.66852569580078, 55.90504455566406, 0.787178, 0.22928295, 0.17522907
35, 3346494992, -105.19194793701172, 37.47394943237305, 55.14323806762695, 0.9747682, 0.34952846, -0.14371014
36, 3346511659, -105.41068267822266, 37.210693359375, 54.48994827270508, 0.97539467, 0.58421797, -0.46926022
37, 3346528326, -105.52210998535156, 36.949745178222656, 53.92809295654297, 0.754763, 0.60560834, -0.7922478
38, 3346544993, -105.5938949584961, 36.741844177246094, 53.416839599609375, 0.36874312, 0.5134408, -1.0485802
39, 3346561660, -105.59835052490234, 36.58489227294922, 52.92839431762695, 0.119566806, 0.46532246, -1.1505404
40, 3346578327, -105.48869323730469, 36.47677230834961, 52.4658203125, 0.12007155, 0.6332518, -1.1911354
41, 3346594994, -105.26083374023438, 36.42311096191406, 52.04365539550781, 0.27375206, 0.8982136, -1.365138
42, 3346611661, -105.01956939697266, 36.401912689208984, 51.64955139160156, 0.41540486, 0.9364288, -1.6939564
43, 3346628328, -104.81739807128906, 36.39754867553711, 51.32946014404297, 0.4087412, 0.79592603, -1.9331694
44, 3346644995, -104.68172454833984, 36.40727233886719, 51.11478042602539, 0.14359747, 0.7318006, -1.8758597
45, 3346661662, -104.68633270263672, 36.4398078918457, 50.929656982421875, -0.17581317, 0.5542587, -1.4816246
46, 3346678329, -104.80559539794922, 36.50209045410156, 50.725467681884766, -0.45394188, 0.33058867, -0.9590006
47, 3346694996, -104.95032501220703, 36.58694839477539, 50.49876022338867, -0.5644052, 0.089438036, -0.6187706
48, 3346711663, -104.9974365234375, 36.70732498168945, 50.2942008972168, -0.45362854, -0.038102925, -0.6124172
49, 3346728330, -104.88362884521484, 36.88812255859375, 50.158756256103516, -0.14308305, -0.07882743, -0.80959797
50, 3346744997, -104.64578247070312, 37.11238479614258, 50.10352325439453, -0.019197863, -0.2542089, -1.0020266
51, 3346761664, -104.44483947753906, 37.360687255859375, 50.127967834472656, -0.11195331, -0.42048755, -1.0439749
52, 3346778331, -104.35826873779297, 37.587337493896484, 50.167823791503906, -0.117606536, -0.43300918, -0.8798704
53, 3346794998, -104.27415466308594, 37.79203414916992, 50.22191619873047, 0.1459377, -0.29576105, -0.67154026
54, 3346811665, -104.04322814941406, 38.0233154296875, 50.3250617980957, 0.65474576, -0.11731458, -0.8627672
55, 3346828332, -103.54863739013672, 38.30301284790039, 50.55266189575195, 1.1073272, -0.08732137, -1.1903162
56, 3346844999, -102.90113067626953, 38.633296966552734, 50.923519134521484, 1.1651382, -0.33169588, -1.5312462
57, 3346861666, -102.36848449707031, 38.98167419433594, 51.35074234008789, 1.0317217, -0.6151926, -1.5919228
58, 3346878333, -102.05252075195312, 39.29286193847656, 51.779659271240234, 0.8372943, -0.687788, -1.1480789
59, 3346895000, -101.86530303955078, 39.565086364746094, 52.17702865600586, 0.8773204, -0.60005003, -0.58839035
60, 3346911667, -101.5833969116211, 39.83379364013672, 52.55278778076172, 1.1451107, -0.40302157, -0.21667099
61, 3346928334, -101.0741958618164, 40.15297317504883, 52.92532730102539, 1.2945025, -0.4777833, -0.32515526
62, 3346945001, -100.3774642944336, 40.541259765625, 53.27513885498047, 1.3405107, -0.725701, -0.74295807
63, 3346961668, -99.6527099609375, 40.95353698730469, 53.667266845703125, 1.3522408, -0.9609928, -1.2274332
64, 3346978335, -99.08292388916016, 41.34309768676758, 54.06742858886719, 1.2623261, -1.1769314, -1.3271713
65, 3346995002, -98.69728088378906, 41.683509826660156, 54.451576232910156, 1.1373702, -1.0127654, -0.9594116
66, 3347011669, -98.40914154052734, 41.975799560546875, 54.79560852050781, 1.2695479, -0.6380837, -0.60643005
67, 3347028336, -98.04550170898438, 42.28041458129883, 55.106712341308594, 1.3269309, -0.5063411, -0.4848299
68, 3347045003, -97.53633117675781, 42.640533447265625, 55.41035461425781, 1.2063698, -0.5132148, -0.5816488
69, 3347061670, -97.01871490478516, 43.02883529663086, 55.64217758178711, 1.1002976, -0.639887, -0.828743
70, 3347078337, -96.57289123535156, 43.38532638549805, 55.796875, 1.0894994, -0.65569806, -0.8442478
71, 3347095004, -96.18944549560547, 43.69171142578125, 55.91286087036133, 1.038936, -0.51324767, -0.76865196
72, 3347111671, -95.89379119873047, 43.970855712890625, 56.02315902709961, 0.78161705, -0.5449056, -0.78586674
73, 3347128338, -95.72406768798828, 44.279502868652344, 56.16680908203125, 0.5489079, -0.4332604, -0.77664185
74, 3347145005, -95.62763214111328, 44.67001724243164, 56.34877014160156, 0.5713141, -0.18832733, -0.6962795
75, 3347161672, -95.45313262939453, 45.1488151550293, 56.60704803466797, 0.8930059, 0.041951593, -0.5410538
76, 3347178339, -95.11751556396484, 45.6805305480957, 56.95304489135742, 1.1191953, 0.39279428, -0.54502964
77, 3347195006, -94.69515228271484, 46.2215690612793, 57.313941955566406, 1.1203127, 0.5458489, -0.58567333
78, 3347211673, -94.26395416259766, 46.756744384765625, 57.66145324707031, 0.9153655, 0.5059598, -0.7605257
79, 3347228340, -93.92694854736328, 47.29999542236328, 58.023685455322266, 0.68129903, 0.4987924, -1.0405569
80, 3347245007, -93.73655700683594, 47.8696403503418, 58.4488525390625, 0.505085, 0.5530513, -1.2370949
81, 3347261674, -93.66450500488281, 48.46766662597656, 58.913394927978516, 0.6166123, 0.7708535, -1.1337738
82, 3347278341, -93.56768035888672, 49.10287857055664, 59.43519973754883, 0.85271674, 0.94137645, -0.8433933
83, 3347295008, -93.33612823486328, 49.791526794433594, 60.061248779296875, 0.96727645, 1.0222863, -0.85287
84, 3347311675, -93.00225830078125, 50.51847457885742, 60.8001594543457, 0.8154822, 0.9459171, -0.99870586
85, 3347328342, -92.64430236816406, 51.273929595947266, 61.68764114379883, 0.4128914, 0.66914415, -1.1032066
86, 3347345009, -92.36188507080078, 52.05945587158203, 62.73301315307617, -0.21137698, 0.53509897, -0.9285736
87, 3347361676, -92.28523254394531, 52.860843658447266, 63.78427505493164, -0.86007327, 0.014044884, -0.08205509
88, 3347378343, -92.05923461914062, 53.6547737121582, 64.75251007080078, -0.50871944, -0.35861394, 0.9366503
89, 3347395010, -91.5082778930664, 54.40771484375, 65.8850326538086, -0.35630548, -0.15949906, 0.5766239
90, 3347411677, -90.7867660522461, 55.185447692871094, 67.18436431884766, -0.8795329, -0.22957529, -0.11207199
91, 3347428344, -90.08670806884766, 56.008811950683594, 68.5567855834961, -1.2947344, -0.38173956, 0.009529114
92, 3347445011, -89.56752014160156, 56.8420524597168, 69.81473541259766, -1.4967659, -0.42042318, 0.44321442
93, 3347461678, -89.2011947631836, 57.635711669921875, 70.91230773925781, -1.2995552, -0.30661106, 0.90545845
94, 3347478345, -88.84785461425781, 58.374752044677734, 71.91007232666016, -1.1332897, -0.09749814, 1.1890335
95, 3347495012, -88.40886688232422, 59.074424743652344, 72.82041931152344, -0.95269537, -0.13143523, 1.2077122
96, 3347511679, -87.79878997802734, 59.762359619140625, 73.68804168701172, -0.86819094, -0.3868075, 1.1084003
97, 3347528346, -87.10167694091797, 60.431026458740234, 74.52833557128906, -0.7077498, -0.61322254, 0.94603443
98, 3347545013, -86.50117492675781, 61.04450988769531, 75.33456420898438, -0.7143816, -0.7132722, 1.0092144
99, 3347561680, -86.1494369506836, 61.60298538208008, 76.06156158447266, -0.9291105, -0.66790813, 1.3273993
100, 3347578347, -86.17486572265625, 62.121177673339844, 76.584228515625, -1.2449162, -0.81884664, 2.1355362
101, 3347595014, -86.54569244384766, 62.61524200439453, 76.82211303710938, -1.4548805, -0.9040422, 3.0426874
102, 3347611681, -87.1771011352539, 63.10026550292969, 76.73410034179688, -1.5236442, -0.9958877, 3.3831244
103, 3347628348, -87.93648529052734, 63.55672836303711, 76.39215850830078, -1.6216118, -1.2461684, 3.206604
104, 3347645015, -88.65547180175781, 63.96257019042969, 75.94483184814453, -1.6051357, -1.3549736, 2.5748615
105, 3347661682, -89.17727661132812, 64.32266235351562, 75.5342025756836, -1.3771182, -1.2062027, 1.6720858
106, 3347678349, -89.36569213867188, 64.62923431396484, 75.36962890625, -1.1839888, -0.9004713, 0.6729059
107, 3347695016, -89.24430084228516, 64.89169311523438, 75.54069519042969, -1.3438269, -0.4571972, -0.26747894
108, 3347711683, -88.96256256103516, 65.15020751953125, 75.9808349609375, -1.6500341, -0.17981684, -0.8501253
109, 3347728350, -88.69014739990234, 65.39469909667969, 76.47051239013672, -1.776873, 0.08041212, -1.0763922
110, 3347745017, -88.455810546875, 65.54042053222656, 76.81089782714844, -1.8057297, 0.32726577, -1.3423376
111, 3347761684, -88.26980590820312, 65.608642578125, 76.97425079345703, -1.7970761, 0.28347725, -1.77353
112, 3347778351, -88.21768951416016, 65.7110824584961, 77.04954528808594, -1.8066944, -0.08212257, -1.9924603
113, 3347795018, -88.13980865478516, 65.89335632324219, 77.26254272460938, -1.7867638, -0.07305912, -2.0986066
114, 3347811685, -87.97239685058594, 66.1309814453125, 77.64053344726562, -1.608338, 0.24780178, -2.051322
115, 3347828352, -87.64071655273438, 66.38578796386719, 78.14435577392578, -1.3824811, 0.3270521, -1.8725224
116, 3347845019, -87.24129486083984, 66.62129974365234, 78.76039123535156, -1.400996, 0.05687589, -1.9254665
117, 3347861686, -87.00609588623047, 66.8172378540039, 79.35636138916016, -1.5950665, -0.4070609, -1.9086313
118, 3347878353, -87.05479431152344, 66.96072387695312, 79.86782836914062, -1.7785002, -0.673019, -1.5331049
119, 3347895020, -87.38370513916016, 67.07946014404297, 80.29364776611328, -1.9889027, -0.6716948, -1.0725794
120, 3347911687, -87.97554779052734, 67.22351837158203, 80.48414611816406, -1.9361073, -0.5763835, -0.280303
121, 3347928354, -88.45121002197266, 67.41339874267578, 80.4653091430664, -1.4399433, -0.39649478, 0.33169365
122, 3347945021, -88.50423431396484, 67.63885498046875, 80.560791015625, -1.0030309, -0.4484402, 0.17542648
123, 3347961688, -88.24008178710938, 67.88241577148438, 80.81798553466797, -0.8918405, -0.8775284, 0.019900322
124, 3347978355, -87.84351348876953, 68.10216522216797, 81.13597869873047, -0.7872062, -1.2289387, 0.25983047
125, 3347995022, -87.436279296875, 68.26500701904297, 81.46202087402344, -0.5692705, -1.4295545, 0.28934383
126, 3348011689, -86.98350524902344, 68.3681411743164, 81.95402526855469, -0.45723218, -1.5295123, 0.06895256
127, 3348028356, -86.51146697998047, 68.40982818603516, 82.63504028320312, -0.36731926, -1.4238374, -0.10683632
128, 3348045023, -86.10618591308594, 68.38921356201172, 83.35503387451172, -0.19601929, -1.1880777, -0.31138515
129, 3348061690, -85.6994400024414, 68.31513977050781, 84.09542083740234, -0.017373921, -0.9652023, -0.38935852
130, 3348078357, -85.13478088378906, 68.17892456054688, 84.95050048828125, 0.14375971, -0.840185, -0.3622923
131, 3348095024, -84.3763656616211, 67.9976577758789, 85.90894317626953, 0.14409609, -0.69237566, -0.28609276
132, 3348111691, -83.63492584228516, 67.80735778808594, 86.78839111328125, 0.14037971, -0.703006, -0.19248104
133, 3348128358, -83.01225280761719, 67.61688232421875, 87.51146697998047, 0.06888401, -0.7728438, -0.21642208
134, 3348145025, -82.49665832519531, 67.41214752197266, 88.11803436279297, 0.07790087, -0.68836796, -0.32357216
135, 3348161692, -82.07914733886719, 67.20708465576172, 88.61077117919922, 0.2582325, -0.5371277, -0.54402256
136, 3348178359, -81.75048065185547, 67.02533721923828, 88.99748229980469, 0.31228212, -0.44102716, -0.76408195
137, 3348195026, -81.54864501953125, 66.85711669921875, 89.25753784179688, 0.31584397, -0.5606544, -0.73072624
138, 3348211693, -81.44253540039062, 66.69261169433594, 89.41845703125, 0.4101617, -0.56687146, -0.5780592
139, 3348228360, -81.39115905761719, 66.52400207519531, 89.51608276367188, 0.56250083, -0.37644723, -0.5284529
140, 3348245027, -81.35199737548828, 66.34766387939453, 89.60016632080078, 0.6847611, -0.36311936, -0.5683098
141, 3348261694, -81.31600189208984, 66.17858123779297, 89.71464538574219, 0.6087808, -0.54464644, -0.6077471
142, 3348278361, -81.29948425292969, 66.02045440673828, 89.84414672851562, 0.5478573, -0.68969, -0.5731516
143, 3348295028, -81.33100128173828, 65.86836242675781, 89.94427490234375, 0.64691925, -0.8042551, -0.46043015
144, 3348311695, -81.44727325439453, 65.70220947265625, 90.01045227050781, 0.6787487, -0.903881, -0.4523964
145, 3348328362, -81.63978576660156, 65.50580596923828, 90.0713119506836, 0.75676423, -0.9834753, -0.44403172
146, 3348345029, -81.81655883789062, 65.28307342529297, 90.181396484375, 0.68437, -0.8677116, -0.34805965
147, 3348361696, -81.93041229248047, 65.05892944335938, 90.32673645019531, 0.62781763, -0.72072387, -0.30634403
148, 3348378363, -81.95552062988281, 64.84629821777344, 90.4495849609375, 0.6565259, -0.560027, -0.21931171
149, 3348395030, -81.86259460449219, 64.64351654052734, 90.54717254638672, 0.63615876, -0.5155529, -0.24751854
150, 3348411697, -81.70700073242188, 64.45915222167969, 90.60309600830078, 0.6589464, -0.65463066, -0.5025234
151, 3348428364, -81.5879898071289, 64.28838348388672, 90.62153625488281, 0.54301155, -0.85284984, -0.6860781
152, 3348445031, -81.66796875, 64.1202163696289, 90.55986022949219, 0.4557557, -0.9393921, -0.6421881
153, 3348461698, -81.94754791259766, 63.96157455444336, 90.41402435302734, 0.51662797, -0.7692535, -0.5370426
154, 3348478365, -82.28099822998047, 63.831275939941406, 90.24539947509766, 0.49148723, -0.4916745, -0.4012785
155, 3348495032, -82.54581451416016, 63.73739242553711, 90.08390808105469, 0.45520884, -0.30679378, -0.27570915
156, 3348511699, -82.7063980102539, 63.689842224121094, 89.92455291748047, 0.32904315, -0.27488708, -0.17949486
157, 3348528366, -82.88709259033203, 63.68592834472656, 89.71051025390625, 0.17913426, -0.4324694, -0.19514084
158, 3348545033, -83.22306823730469, 63.705631256103516, 89.38640594482422, 0.04742079, -0.63382924, -0.23931503
159, 3348561700, -83.78059387207031, 63.72113037109375, 88.90161895751953, 0.030815242, -0.66816616, -0.12282753
160, 3348578367, -84.45668029785156, 63.70606231689453, 88.3082275390625, 0.15472274, -0.43655658, 0.006904602
161, 3348595034, -85.15902709960938, 63.67131805419922, 87.6996841430664, 0.17072235, -0.22091208, -0.015447617
162, 3348611701, -85.82122039794922, 63.655845642089844, 87.1010971069336, 0.17830443, -0.12567005, 0.02207756
163, 3348628368, -86.43878936767578, 63.66328048706055, 86.50299072265625, 0.019619841, -0.08274472, 0.17173767
164, 3348645035, -86.98558807373047, 63.688350677490234, 85.89704895019531, -0.091419764, -0.11227905, 0.21206093
165, 3348661702, -87.42877960205078, 63.71053695678711, 85.29519653320312, -0.048663605, -0.24884167, 0.23945045
166, 3348678369, -87.80815124511719, 63.69884490966797, 84.7081527709961, -0.051778145, -0.37450513, 0.29141808
167, 3348695036, -88.18102264404297, 63.63063049316406, 84.16722106933594, -0.04243254, -0.4624626, 0.2912159
168, 3348711703, -88.460205078125, 63.51203155517578, 83.72679138183594, -0.018359773, -0.36073595, 0.30405617
169, 3348728370, -88.59778594970703, 63.36720275878906, 83.38216400146484, 0.1333376, -0.19965452, 0.31972694
170, 3348745037, -88.54387664794922, 63.22468566894531, 83.10092163085938, 0.33242983, -0.17484704, 0.20836926
171, 3348761704, -88.27730560302734, 63.10267639160156, 82.8791275024414, 0.35639298, -0.21552986, 0.044042587
172, 3348778371, -87.8333969116211, 62.98871612548828, 82.74261474609375, 0.37084386, -0.46407545, -0.18901062
173, 3348795038, -87.33203887939453, 62.87064743041992, 82.7044906616211, 0.1512019, -0.6366546, -0.32809734
174, 3348811705, -86.89192962646484, 62.740875244140625, 82.69554901123047, 0.050348025, -0.5811237, -0.31472206
175, 3348828372, -86.6279296875, 62.60920333862305, 82.59166717529297, 0.08256285, -0.34861505, -0.208992
176, 3348845039, -86.51697540283203, 62.50946807861328, 82.34909057617188, 0.08343631, -0.05024996, -0.10446167
177, 3348861706, -86.53889465332031, 62.49240493774414, 81.94739532470703, 0.061384816, 0.39521918, 0.14906311
178, 3348878373, -86.58148193359375, 62.55587387084961, 81.4775619506836, -0.0629745, 0.655669, 0.3598423
179, 3348895040, -86.62130737304688, 62.67274475097656, 81.04500579833984, -0.42968205, 0.95041287, 0.3570261
180, 3348911707, -86.64016723632812, 62.79719543457031, 80.68770599365234, -0.7715052, 1.1815968, 0.22648239
181, 3348928374, -86.64481353759766, 62.902469635009766, 80.49390411376953, -0.95489764, 1.3187441, 0.12855244
182, 3348945041, -86.62398529052734, 62.98120880126953, 80.4937973022461, -1.1608809, 1.4793272, 0.0010681152
183, 3348961708, -86.73262786865234, 63.01998519897461, 80.570068359375, -1.3919225, 1.6302009, -0.098955154
184, 3348978375, -87.00897979736328, 63.00307083129883, 80.75434875488281, -1.5966471, 1.6267958, -0.16450787
185, 3348995042, -87.33476257324219, 62.93971633911133, 81.11519622802734, -1.7359641, 1.7353277, -0.08212662
186, 3349011709, -87.4988021850586, 62.84247970581055, 81.68537139892578, -1.7888819, 1.8658911, -0.013306618
187, 3349028376, -87.44476318359375, 62.719600677490234, 82.4147720336914, -1.645798, 1.7503129, -0.03821087
188, 3349045043, -87.2480697631836, 62.56410217285156, 83.2010726928711, -1.5237106, 1.4141495, -0.018198013
189, 3349061710, -87.008056640625, 62.374149322509766, 84.03038024902344, -1.4474207, 0.9393415, -0.05835247
190, 3349078377, -86.71695709228516, 62.14345169067383, 84.99309539794922, -1.4054555, 0.4930832, -0.075696945
191, 3349095044, -86.42033386230469, 61.8593864440918, 86.1041488647461, -1.3546537, 0.19790508, -0.005033493
192, 3349111711, -86.13660430908203, 61.54191589355469, 87.31074523925781, -1.2383657, 0.019160202, 0.122950554
193, 3349128378, -85.77536010742188, 61.209163665771484, 88.60486602783203, -1.0455905, 0.15388659, 0.2654419
194, 3349145045, -85.26876068115234, 60.83711624145508, 89.9844741821289, -0.97570044, 0.12658712, 0.28099155
195, 3349161712, -84.6097412109375, 60.44292068481445, 91.42486572265625, -0.9701059, -0.37129694, 0.32958508
196, 3349178379, -83.80484771728516, 60.037330627441406, 92.90528869628906, -0.7135318, -0.8748107, 0.44340992
197, 3349195046, -82.89390563964844, 59.5962028503418, 94.38607025146484, -0.30879578, -0.89741147, 0.35132313
198, 3349211713, -81.94429016113281, 59.10902404785156, 95.83626556396484, 0.053653613, -0.831759, 0.11070442
199, 3349228380, -80.91352844238281, 58.59697723388672, 97.27462768554688, 0.31887347, -0.8351138, -0.024997711
200, 3349245047, -79.71731567382812, 58.07817077636719, 98.73512268066406, 0.45619088, -0.9183022, -0.09284115
201, 3349261714, -78.40972900390625, 57.598270416259766, 100.16783142089844, 0.6366918, -1.1391127, -0.3144045
202, 3349278381, -77.1524887084961, 57.17161560058594, 101.49346160888672, 0.82798964, -1.4137943, -0.46460724
203, 3349295048, -75.94307708740234, 56.767181396484375, 102.696044921875, 0.93624794, -1.435709, -0.5231867
204, 3349311715, -74.78271484375, 56.38570022583008, 103.74510192871094, 1.1802932, -1.2239572, -0.62860584
205, 3349328382, -73.7778091430664, 56.063838958740234, 104.5528335571289, 1.379533, -0.98925763, -0.82866764
206, 3349345049, -72.98238372802734, 55.81770706176758, 105.0636215209961, 1.5811388, -0.9772905, -0.88828754
207, 3349361716, -72.31828308105469, 55.631282806396484, 105.34162139892578, 1.7432679, -0.97699165, -0.70914364
208, 3349378383, -71.6964111328125, 55.50218963623047, 105.44872283935547, 1.7274421, -0.85650057, -0.4801178
209, 3349395050, -71.09002685546875, 55.45307159423828, 105.39449310302734, 1.6933283, -0.8506998, -0.5241766
210, 3349411717, -70.5372085571289, 55.47490310668945, 105.14681243896484, 1.620154, -0.9817364, -0.45046997
211, 3349428384, -69.97130584716797, 55.53679656982422, 104.73558807373047, 1.5167657, -0.99342793, -0.26634407
212, 3349445051, -69.42058563232422, 55.646324157714844, 104.1587905883789, 1.5666313, -0.99487406, -0.32765007
213, 3349461718, -68.95581817626953, 55.81740951538086, 103.38687133789062, 1.5421438, -1.111633, -0.56270695
214, 3349478385, -68.61882019042969, 56.06078338623047, 102.4339828491211, 1.4030946, -1.2073866, -0.8159628
215, 3349495052, -68.44914245605469, 56.39353942871094, 101.33025360107422, 1.1836259, -1.2261275, -0.9130678
216, 3349511719, -68.48969268798828, 56.815757751464844, 100.09891510009766, 0.9713714, -1.2549667, -0.8502493
217, 3349528386, -68.75220489501953, 57.341434478759766, 98.72343444824219, 0.7946121, -1.2432457, -0.7730646
218, 3349545053, -69.17695617675781, 57.9637451171875, 97.18380737304688, 0.61468023, -1.1839768, -0.70125484
219, 3349561720, -69.65015411376953, 58.68803405761719, 95.50249481201172, 0.38898134, -1.268586, -0.52588844
220, 3349578387, -70.2188949584961, 59.443328857421875, 93.75430297851562, 0.13643654, -1.2464213, -0.27829838
221, 3349595054, -70.96784210205078, 60.2310676574707, 91.89088439941406, 0.06939379, -1.0846305, -0.34420395
222, 3349611721, -71.91016387939453, 61.08900833129883, 89.94438171386719, -0.09951769, -0.84401095, -0.50233364
223, 3349628388, -73.066162109375, 62.004703521728516, 87.85749053955078, -0.7013374, -1.2814926, -0.3051386
224, 3349645055, -74.42642211914062, 62.89387130737305, 85.69678497314453, -0.7920367, -1.2463709, 0.09731674
225, 3349661722, -75.99777221679688, 63.70136260986328, 83.31477355957031, -0.7560241, -0.77677166, 0.37067795
226, 3349678389, -77.69583892822266, 64.49991607666016, 80.60928344726562, -0.53102374, -0.63874537, -0.016551018
227, 3349695056, -79.73395538330078, 65.32852172851562, 77.63277435302734, -0.77736515, -1.0678303, -0.35326004
228, 3349711723, -82.08955383300781, 66.14491271972656, 74.55233764648438, -1.0659133, -1.05376, 0.110069275
229, 3349728390, -84.37205505371094, 66.90232849121094, 71.48230743408203, -1.1653463, -0.6475946, 0.60767937
230, 3349745057, -86.55321502685547, 67.62589263916016, 68.34153747558594, -1.1414814, -0.4833698, 0.5323801
231, 3349761724, -88.95380401611328, 68.31881713867188, 65.05803680419922, -1.1258049, -0.52693313, 0.4046154
232, 3349778391, -91.51786804199219, 68.8814468383789, 61.79467010498047, -1.2093728, -0.39256364, 0.53253174
233, 3349795058, -93.90940856933594, 69.30723571777344, 58.732666015625, -0.9703682, 0.14233215, 0.48962307
234, 3349811725, -96.09558868408203, 69.65731048583984, 55.75168991088867, -0.6740441, 0.67434293, 0.3927908
235, 3349828392, -98.08745574951172, 69.96446228027344, 52.830238342285156, -0.69580036, 0.82837266, 0.48048306
236, 3349845059, -99.63426208496094, 70.23211669921875, 50.14287567138672, -0.78047603, 0.9088705, 0.5646982
237, 3349861726, -100.56967163085938, 70.44453430175781, 47.8599967956543, -0.7495241, 0.84582734, 0.2680893
238, 3349878393, -101.0693588256836, 70.59798431396484, 45.955379486083984, -0.7418404, 0.610451, -0.107954025
239, 3349895060, -101.3199691772461, 70.68132781982422, 44.39517593383789, -0.8805654, 0.4001937, -0.3187456
240, 3349911727, -101.52703857421875, 70.69878387451172, 43.16558837890625, -0.82196456, 0.29974473, -0.5827732
241, 3349928394, -101.70489501953125, 70.64713287353516, 42.259639739990234, -0.6892852, 0.49518043, -0.6453047
242, 3349945061, -101.618896484375, 70.5508804321289, 41.67179870605469, -0.5661486, 0.90418345, -0.37382126
243, 3349961728, -101.21627044677734, 70.4663314819336, 41.294151306152344, -0.5825923, 1.0842866, -0.25782394
244, 3349978395, -100.5739974975586, 70.42235565185547, 41.086280822753906, -0.78202367, 0.97342205, -0.46968842
245, 3349995062, -99.93328094482422, 70.3902587890625, 40.965057373046875, -1.017078, 0.8338672, -0.7020254
246, 3350011729, -99.5028305053711, 70.32807159423828, 40.87050247192383, -1.045298, 0.65835184, -0.7373314
247, 3350028396, -99.36962127685547, 70.24343872070312, 40.739471435546875, -0.86780894, 0.6856745, -0.61840534
248, 3350045063, -99.40274810791016, 70.14849090576172, 40.59276580810547, -0.58359605, 0.8020181, -0.4674921
249, 3350061730, -99.35729217529297, 70.05699157714844, 40.5050163269043, -0.39383715, 0.8855923, -0.35169315
250, 3350078397, -99.10436248779297, 69.99495697021484, 40.48647689819336, -0.45343107, 0.8501322, -0.33683205
251, 3350095064, -98.71192932128906, 69.96922302246094, 40.48286819458008, -0.69006205, 0.62696457, -0.41571617
252, 3350111731, -98.32791137695312, 69.96744537353516, 40.47224807739258, -0.8802264, 0.34829712, -0.3728037
253, 3350128398, -98.14958953857422, 69.96158599853516, 40.39179611206055, -0.9562148, 0.1292305, -0.28896332
254, 3350145065, -98.13276672363281, 69.96224212646484, 40.29301071166992, -0.7900709, 0.25592995, -0.07005882
255, 3350161732, -98.09617614746094, 69.97642517089844, 40.242698669433594, -0.39061382, 0.50868696, 0.06431389
256, 3350178399, -97.927001953125, 70.0169448852539, 40.2484245300293, -0.09239712, 0.6293157, 0.0323143
257, 3350195066, -97.56571197509766, 70.09514617919922, 40.333168029785156, -0.08330378, 0.5747399, -0.0485878
258, 3350211733, -97.02877044677734, 70.18896484375, 40.51175308227539, -0.17282972, 0.31555402, -0.20013618
259, 3350228400, -96.428466796875, 70.2752685546875, 40.77227020263672, -0.35076156, 0.011200681, -0.40955162
260, 3350245067, -95.99504852294922, 70.32710266113281, 41.05710983276367, -0.512303, -0.15457486, -0.36488056
261, 3350261734, -95.79426574707031, 70.31317138671875, 41.353878021240234, -0.46420535, -0.10932801, -0.2351799
262, 3350278401, -95.63877868652344, 70.25808715820312, 41.73692321777344, -0.12871553, 0.13795353, -0.2052517
263, 3350295068, -95.392578125, 70.2004623413086, 42.19150924682617, 0.235835, 0.4091132, -0.117417336
264, 3350311735, -94.99906158447266, 70.16212463378906, 42.66898727416992, 0.3851438, 0.48132822, -0.088279724
265, 3350328402, -94.44775390625, 70.14750671386719, 43.16569519042969, 0.19842848, 0.37854043, -0.11660385
266, 3350345069, -93.79461669921875, 70.1529769897461, 43.671791076660156, -0.11908201, 0.16030036, -0.25941944
267, 3350361736, -93.2472152709961, 70.15393829345703, 44.099056243896484, -0.3561471, -0.09257974, -0.35440922
268, 3350378403, -92.88896942138672, 70.12310791015625, 44.44839096069336, -0.34644943, -0.18837829, -0.29783154
269, 3350395070, -92.72560119628906, 70.06106567382812, 44.72064971923828, -0.17350127, -0.16700396, -0.077075005
270, 3350411737, -92.59270477294922, 70.00508880615234, 44.975135803222656, 0.009698618, -0.025588434, 0.0786705
271, 3350428404, -92.35769653320312, 69.98054504394531, 45.242027282714844, 0.0955785, 0.023373196, 0.13466644
272, 3350445071, -91.94898986816406, 69.9952392578125, 45.55296325683594, 0.08997559, -0.06629148, 0.051402092
273, 3350461738, -91.4779281616211, 70.0326919555664, 45.888465881347656, -0.06118153, -0.22264327, -0.13698292
274, 3350478405, -91.06787109375, 70.0562744140625, 46.23863983154297, -0.17010655, -0.35477495, -0.3089304
275, 3350495072, -90.82176208496094, 70.05023956298828, 46.5641975402832, -0.19350667, -0.38305023, -0.33755016
276, 3350511739, -90.701171875, 70.01223754882812, 46.85255813598633, -0.045195688, -0.25648293, -0.2633171
277, 3350528406, -90.55030822753906, 69.96600341796875, 47.16667938232422, 0.1139193, -0.05039502, -0.20347023
278, 3350545073, -90.32109069824219, 69.92793273925781, 47.46486282348633, 0.18062456, 0.043359503, -0.235466
279, 3350561740, -90.02186584472656, 69.91570281982422, 47.724552154541016, 0.15725796, 0.050153848, -0.34274197
280, 3350578407, -89.7364501953125, 69.92181396484375, 47.91316604614258, 0.050159436, -0.0149177015, -0.38025475
281, 3350595074, -89.53182220458984, 69.9365463256836, 48.018043518066406, -0.06761055, -0.027589992, -0.35870266
282, 3350611741, -89.444580078125, 69.95645141601562, 48.046974182128906, -0.1277033, -0.100914985, -0.35596657
283, 3350628408, -89.5035400390625, 69.97824096679688, 48.008968353271484, -0.1460742, -0.113274574, -0.36820698
284, 3350645075, -89.65765380859375, 69.9969711303711, 47.926673889160156, -0.112450264, -0.04502557, -0.31071854
285, 3350661742, -89.83363342285156, 70.02098083496094, 47.81758117675781, -0.057484236, -0.019868737, -0.26866245
286, 3350678409, -89.94557189941406, 70.0535888671875, 47.72392272949219, -0.045895703, -0.03155869, -0.31228828
287, 3350695076, -90.03800964355469, 70.09139251708984, 47.6386604309082, -0.11450429, -0.12582645, -0.29765415
288, 3350711743, -90.18505096435547, 70.12360382080078, 47.53178787231445, -0.18525077, -0.19804321, -0.20492744
289, 3350728410, -90.34603118896484, 70.14098358154297, 47.44944763183594, -0.18196519, -0.15069333, -0.15791321
290, 3350745077, -90.47098541259766, 70.15404510498047, 47.40380096435547, -0.06876739, -0.05585142, -0.10148239
291, 3350761744, -90.4924087524414, 70.17667388916016, 47.41099548339844, -0.017612094, -0.0073698927, -0.0469141
292, 3350778411, -90.39178466796875, 70.21385955810547, 47.476707458496094, -0.098770484, 0.008384418, -0.14073277
293, 3350795078, -90.23016357421875, 70.26081848144531, 47.57240676879883, -0.16879402, -0.11312818, -0.3295393
294, 3350811745, -90.10545349121094, 70.30152893066406, 47.67097091674805, -0.24495696, -0.16225253, -0.39132118
295, 3350828412, -90.09356689453125, 70.3258056640625, 47.73466110229492, -0.18052582, -0.13624813, -0.36379337
296, 3350845079, -90.15437316894531, 70.3377456665039, 47.77644729614258, -0.102154866, 0.017410764, -0.29959774
297, 3350861746, -90.19435119628906, 70.35174560546875, 47.82788848876953, -0.018602258, 0.15099405, -0.22115993
298, 3350878413, -90.16667938232422, 70.3781967163086, 47.86993408203125, 0.012377477, 0.15541862, -0.19684887
299, 3350895080, -90.07823181152344, 70.41869354248047, 47.90522766113281, -0.08385256, 0.073229104, -0.17659664
300, 3350911747, -89.95793914794922, 70.46208190917969, 47.956966400146484, -0.16834688, -0.05454722, -0.2131195
301, 3350928414, -89.89016723632812, 70.49947357177734, 47.99198532104492, -0.22624215, -0.14369267, -0.21761513
302, 3350945081, -89.89922332763672, 70.52494049072266, 47.99724197387695, -0.17237157, -0.15841459, -0.13312244
303, 3350961748, -89.93108367919922, 70.53966522216797, 48.01904296875, -0.095290504, -0.0873473, -0.08247948
304, 3350978415, -89.91427612304688, 70.55057525634766, 48.07986068725586, -0.009443926, -0.035551745, -0.10891628
305, 3350995082, -89.83283996582031, 70.56696319580078, 48.17138671875, 0.013630938, 0.018539952, -0.14898682
306, 3351011749, -89.7204360961914, 70.5879135131836, 48.25956726074219, -0.044575915, 0.018017603, -0.13995552
307, 3351028416, -89.55510711669922, 70.6143569946289, 48.374427795410156, -0.08564849, -0.026333403, -0.24698162
308, 3351045083, -89.43612670898438, 70.63973236083984, 48.47313690185547, -0.099367894, -0.109435655, -0.27773476
309, 3351061750, -89.37983703613281, 70.65753173828125, 48.548553466796875, -0.12671229, -0.11734855, -0.23626137
310, 3351078417, -89.37995910644531, 70.66902160644531, 48.60071563720703, -0.05587701, -0.07823691, -0.20439816
311, 3351095084, -89.40735626220703, 70.67183685302734, 48.62713623046875, -0.02881596, 0.028037688, -0.18498611
312, 3351111751, -89.42523956298828, 70.68290710449219, 48.62192916870117, -0.02763978, 0.08783031, -0.20594597
313, 3351128418, -89.43421173095703, 70.70453643798828, 48.58027267456055, -0.028557133, 0.056028888, -0.21114063
314, 3351145085, -89.43486785888672, 70.73167419433594, 48.516937255859375, -0.017270679, 0.05260154, -0.21879387
315, 3351161752, -89.45442199707031, 70.75544738769531, 48.42234802246094, -0.034961842, -0.0040940866, -0.19633675
316, 3351178419, -89.49537658691406, 70.77952575683594, 48.319950103759766, -0.10236575, -0.053639535, -0.22104168
317, 3351195086, -89.57237243652344, 70.80147552490234, 48.20622253417969, -0.11534548, -0.040401306, -0.30565262
318, 3351211753, -89.66900634765625, 70.82113647460938, 48.09347152709961, -0.06966084, -0.03358416, -0.38487148
319, 3351228420, -89.7955551147461, 70.83987426757812, 47.967529296875, -0.061059438, -0.022785358, -0.34648705
320, 3351245087, -89.91888427734375, 70.85358428955078, 47.84178161621094, -0.103747174, 0.035000786, -0.23847294
321, 3351261754, -90.01460266113281, 70.86846160888672, 47.705081939697266, -0.13742912, 0.033729445, -0.18139076
322, 3351278421, -90.11096954345703, 70.88886260986328, 47.53769302368164, -0.2095278, 0.0038620804, -0.19569492
323, 3351295088, -90.24053955078125, 70.92007446289062, 47.342472076416016, -0.25399598, -0.047960516, -0.22242165
324, 3351311755, -90.40367126464844, 70.95771026611328, 47.137840270996094, -0.22962129, -0.090032585, -0.23810673
325, 3351328422, -90.58079528808594, 70.99817657470703, 46.92565155029297, -0.18463701, -0.064808026, -0.16927528
326, 3351345089, -90.74250793457031, 71.041748046875, 46.72257995605469, -0.13136338, -0.040553298, -0.14063263
327, 3351361756, -90.85784149169922, 71.08988952636719, 46.547943115234375, -0.124825954, -0.048377145, -0.16469479
328, 3351378423, -90.90599060058594, 71.14234161376953, 46.4344482421875, -0.1715929, -0.0075489264, -0.27675533
329, 3351395090, -90.97504425048828, 71.18815612792969, 46.32980728149414, -0.22022767, -0.01031361, -0.29942036
330, 3351411757, -91.09888458251953, 71.22576141357422, 46.21492004394531, -0.25618708, 0.0100752935, -0.30469322
331, 3351428424, -91.26438903808594, 71.25688171386719, 46.090538024902344, -0.22899607, 0.07070229, -0.2910204
332, 3351445091, -91.43374633789062, 71.28701782226562, 45.95576095581055, -0.12293408, 0.11725713, -0.24477291
333, 3351461758, -91.53410339355469, 71.32042694091797, 45.85035705566406, -0.11594645, 0.13541421, -0.18177128
334, 3351478425, -91.55950164794922, 71.35983276367188, 45.776737213134766, -0.13817514, 0.10279428, -0.19318867
335, 3351495092, -91.56129455566406, 71.39772033691406, 45.72194290161133, -0.19511832, 0.043693654, -0.19177628
336, 3351511759, -91.54973602294922, 71.4260482788086, 45.7009391784668, -0.20514773, 0.0077567934, -0.15087605
337, 3351528426, -91.5168228149414, 71.44647216796875, 45.7265510559082, -0.20498055, -0.008573733, -0.13695717
338, 3351545093, -91.47723388671875, 71.46475219726562, 45.786319732666016, -0.15604267, -0.031185422, -0.16569328
339, 3351561760, -91.41383361816406, 71.47347259521484, 45.884796142578125, -0.08133679, -0.0067668958, -0.17429352
340, 3351578427, -91.31950378417969, 71.47262573242188, 46.007083892822266, -0.05596077, 0.015994588, -0.18344879
341, 3351595094, -91.18389892578125, 71.47296142578125, 46.15291213989258, -0.0012195985, 0.0012150165, -0.2424879
342, 3351611761, -91.03196716308594, 71.47661590576172, 46.30653762817383, -0.024686223, -0.041427903, -0.30753613
343, 3351628428, -90.88710021972656, 71.47820281982422, 46.457786560058594, -0.09457951, -0.060589444, -0.32123375
344, 3351645095, -90.78736114501953, 71.4764633178711, 46.57463455200195, -0.08888546, -0.015445192, -0.3024006
345, 3351661762, -90.7171630859375, 71.47160339355469, 46.652427673339844, -0.04438537, -0.010284502, -0.26965332
346, 3351678429, -90.67139434814453, 71.46929168701172, 46.68807601928711, -0.044740923, 0.00808424, -0.28812695
347, 3351695096, -90.65414428710938, 71.4761962890625, 46.687435150146484, -0.09980876, -0.034047507, -0.28189278
348, 3351711763, -90.6754379272461, 71.4933853149414, 46.65659713745117, -0.09861347, -0.08264079, -0.2887745
349, 3351728430, -90.72306823730469, 71.52023315429688, 46.62184143066406, -0.09790588, -0.13281497, -0.301157
350, 3351745097, -90.808837890625, 71.5529556274414, 46.57124710083008, -0.09951541, -0.13738808, -0.2053051
351, 3351761764, -90.91263580322266, 71.58583068847656, 46.516414642333984, -0.11914922, -0.13831899, -0.105968475
352, 3351778431, -91.0070571899414, 71.61737823486328, 46.4765510559082, -0.07801043, -0.13504295, -0.13244152
353, 3351795098, -91.09291076660156, 71.64871215820312, 46.45914077758789, -0.104191065, -0.1403382, -0.20073605
354, 3351811765, -91.18119812011719, 71.67841339111328, 46.45676040649414, -0.09670579, -0.09879049, -0.23194122
355, 3351828432, -91.27330780029297, 71.70321655273438, 46.45650100708008, -0.049123734, -0.06512631, -0.26169968
356, 3351845099, -91.35881805419922, 71.72779083251953, 46.446319580078125, 0.01378924, 0.008613071, -0.32932377
357, 3351861766, -91.41044616699219, 71.75257110595703, 46.44322967529297, 0.03858532, 0.025085306, -0.3103752
358, 3351878433, -91.39463806152344, 71.77578735351562, 46.47814178466797, -0.0088428985, -0.043119896, -0.2723856
359, 3351895100, -91.36700439453125, 71.79962158203125, 46.516502380371094, -0.0924211, -0.054657634, -0.319376
360, 3351911767, -91.38890838623047, 71.81856536865234, 46.526954650878906, -0.17810002, -0.041686017, -0.34728336
361, 3351928434, -91.44696807861328, 71.82576751708984, 46.51673126220703, -0.14236765, -0.03372967, -0.28464508
362, 3351945101, -91.4607162475586, 71.8304443359375, 46.53261184692383, -0.05369759, -0.017473573, -0.20944881
363, 3351961768, -91.4040756225586, 71.83675384521484, 46.5886344909668, -0.054599687, -0.0074695796, -0.15219879
364, 3351978435, -91.30200958251953, 71.85028839111328, 46.66653060913086, -0.11387376, -0.054603096, -0.12619972
365, 3351995102, -91.18846893310547, 71.86490631103516, 46.7546272277832, -0.18119195, -0.11706938, -0.17922688
366, 3352011769, -91.09474182128906, 71.87474060058594, 46.847625732421875, -0.21475153, -0.08901157, -0.2489748
367, 3352028436, -91.03374481201172, 71.87693786621094, 46.94216537475586, -0.15802924, -0.033925466, -0.22518444
368, 3352045103, -90.99678802490234, 71.88011169433594, 47.02471160888672, -0.13139528, -0.025007747, -0.17179203
369, 3352061770, -90.96037292480469, 71.88882446289062, 47.09395217895508, -0.10974464, -3.6969042E-4, -0.184865
370, 3352078437, -90.91022491455078, 71.8988037109375, 47.151729583740234, -0.039579786, -0.03716171, -0.17307186
371, 3352095104, -90.7966079711914, 71.9118423461914, 47.228572845458984, -0.03945879, -0.073370874, -0.14527512
372, 3352111771, -90.64386749267578, 71.93231201171875, 47.32463455200195, -0.07885375, -0.083950125, -0.2135849
373, 3352128438, -90.52285766601562, 71.95421600341797, 47.406532287597656, -0.11049938, -0.09937453, -0.29812527
374, 3352145105, -90.46575164794922, 71.96926879882812, 47.45539855957031, -0.10235631, -0.057253737, -0.23378849
375, 3352161772, -90.4600601196289, 71.98290252685547, 47.47169876098633, -0.057616834, 0.015783591, -0.22494793
376, 3352178439, -90.47366333007812, 72.0050048828125, 47.472164154052734, -0.044893358, 0.025895093, -0.29812527
377, 3352195106, -90.48856353759766, 72.03045654296875, 47.477264404296875, -0.07507247, 0.026234386, -0.29293442
378, 3352211773, -90.5129165649414, 72.05560302734375, 47.47734832763672, -0.08979409, 0.009577754, -0.22947407
379, 3352228440, -90.57971954345703, 72.08080291748047, 47.440738677978516, -0.118155316, 0.020602306, -0.18153286
380, 3352245107, -90.67031860351562, 72.10555267333984, 47.390869140625, -0.0942662, 0.011288745, -0.17056179
381, 3352261774, -90.77215576171875, 72.1292495727539, 47.333858489990234, -0.09676569, 0.031755485, -0.168931
382, 3352278441, -90.88157653808594, 72.14887237548828, 47.2716178894043, -0.11020709, 0.06447365, -0.19261932
383, 3352295108, -91.01787567138672, 72.1611557006836, 47.19706726074219, -0.11962614, 0.069104396, -0.18025017
384, 3352311775, -91.15827941894531, 72.1695556640625, 47.11746597290039, -0.062894754, 0.075821854, -0.13540173
385, 3352328442, -91.23824310302734, 72.1738510131836, 47.07727813720703, 5.8945955E-4, 0.10082692, -0.14534569
386, 3352345109, -91.23422241210938, 72.1761245727539, 47.0955924987793, -0.015879925, 0.088546894, -0.15905476
387, 3352361776, -91.1613540649414, 72.17545318603516, 47.171417236328125, -0.11677881, 0.028886367, -0.17968655
388, 3352378443, -91.08390045166016, 72.16822052001953, 47.26945877075195, -0.16598178, -0.041562233, -0.1843977
389, 3352395110, -91.03592681884766, 72.1475601196289, 47.369625091552734, -0.16685387, -0.05607873, -0.22030067
390, 3352411777, -91.00048828125, 72.1227035522461, 47.46910858154297, -0.13540007, 0.06233955, -0.28206158
391, 3352428444, -90.9632797241211, 72.09681701660156, 47.57099533081055, -0.083280034, 0.08312134, -0.28991318
392, 3352445111, -90.90087890625, 72.07093048095703, 47.68107986450195, -0.07485922, 0.10143504, -0.28526878
393, 3352461778, -90.78608703613281, 72.04314422607422, 47.82503890991211, -0.07300978, 0.1406547, -0.28948975
394, 3352478445, -90.64259338378906, 72.0157699584961, 47.9845085144043, -0.099185325, 0.10488167, -0.3031559
395, 3352495112, -90.47588348388672, 71.99137115478516, 48.15482711791992, -0.16566792, 0.11173145, -0.285429
396, 3352511779, -90.29240417480469, 71.9661865234375, 48.34743118286133, -0.24037203, 0.08104893, -0.3530798
397, 3352528446, -90.13140869140625, 71.93811798095703, 48.54852294921875, -0.24878903, 0.0861591, -0.4117632
398, 3352545113, -90.0029067993164, 71.9068832397461, 48.75971603393555, -0.24400899, 0.11364404, -0.51458836
399, 3352561780, -89.9133071899414, 71.8724365234375, 48.98283386230469, -0.23617564, 0.15703149, -0.55830574
400, 3352578447, -89.85437774658203, 71.82975006103516, 49.20772933959961, -0.21863411, 0.19120863, -0.3425045
401, 3352595114, -89.77485656738281, 71.78312683105469, 49.41630554199219, -0.13468528, 0.16789667, -0.13521957
402, 3352611781, -89.56968688964844, 71.73905944824219, 49.65764617919922, -0.12816961, 0.0814296, -0.0942955
403, 3352628448, -89.23484802246094, 71.6998519897461, 49.975093841552734, -0.17224568, -0.08620492, -0.053687096
404, 3352645115, -88.87114715576172, 71.6621322631836, 50.33513259887695, -0.26356, -0.22606368, -0.11207008
405, 3352661782, -88.54898071289062, 71.61671447753906, 50.686893463134766, -0.28569654, -0.2645249, -0.14653873
406, 3352678449, -88.2738265991211, 71.56476593017578, 51.036888122558594, -0.22543673, -0.26258862, -0.016498566
407, 3352695116, -88.00819396972656, 71.51808166503906, 51.38472366333008, -0.09928987, -0.2917253, 0.074523926
408, 3352711783, -87.72257995605469, 71.48302459716797, 51.72917556762695, -0.03818674, -0.32433027, 0.04201317
409, 3352728450, -87.44882202148438, 71.45993041992188, 52.0375862121582, -0.044591423, -0.39705715, 0.051065445
410, 3352745117, -87.22492980957031, 71.45092010498047, 52.27078628540039, -0.050507084, -0.45109048, -0.035003662
411, 3352761784, -87.06135559082031, 71.45394897460938, 52.43543243408203, -0.004601238, -0.4233219, -0.30975056
412, 3352778451, -86.99639129638672, 71.46272277832031, 52.532493591308594, 0.045606032, -0.41577098, -0.4426937
413, 3352795118, -87.0693588256836, 71.48601531982422, 52.52460479736328, 0.105341144, -0.40337756, -0.39689732
414, 3352811785, -87.24298095703125, 71.52644348144531, 52.41437530517578, 0.11562493, -0.34268737, -0.3138523
415, 3352828452, -87.47554779052734, 71.57781219482422, 52.21973419189453, 0.16438112, -0.32273975, -0.29205418
416, 3352845119, -87.72077941894531, 71.63909912109375, 51.96516418457031, 0.16153815, -0.30368617, -0.29235554
417, 3352861786, -87.98454284667969, 71.71166229248047, 51.66401290893555, 0.12854426, -0.31422034, -0.3263197
418, 3352878453, -88.29476928710938, 71.78900146484375, 51.311378479003906, 0.06335877, -0.31768522, -0.28523636
419, 3352895120, -88.66383361816406, 71.87476348876953, 50.89060592651367, 0.07268806, -0.3031392, -0.21831417
420, 3352911787, -88.9923095703125, 71.97525787353516, 50.48545837402344, 0.052155126, -0.23264815, -0.23647594
421, 3352928454, -89.40858459472656, 72.082275390625, 49.99192428588867, -0.018588902, -0.25197265, -0.3216095
422, 3352945121, -89.93687438964844, 72.20152282714844, 49.368629455566406, -0.011160561, -0.28740457, -0.4062729
423, 3352961788, -90.52703094482422, 72.32345581054688, 48.67641067504883, 0.001128561, -0.1859771, -0.40917683
424, 3352978455, -91.19759368896484, 72.44862365722656, 47.929935455322266, -0.01874726, -0.17915815, -0.49209213
425, 3352995122, -91.94234466552734, 72.59183502197266, 47.13937759399414, -0.1454258, -0.101407155, -0.48533916
426, 3353011789, -92.74676513671875, 72.74065399169922, 46.29694747924805, -0.17602254, -0.009099883, -0.43859482
427, 3353028456, -93.58018493652344, 72.8952407836914, 45.38876724243164, -0.21811819, 0.0667926, -0.29757214
428, 3353045123, -94.41375732421875, 73.05839538574219, 44.45688247680664, -0.20851602, 0.08993491, -0.27821732
429, 3353061790, -95.26262664794922, 73.21556091308594, 43.501644134521484, -0.20189524, 0.1751633, -0.3510971
430, 3353078457, -96.15144348144531, 73.36982727050781, 42.520442962646484, -0.17358816, 0.29851362, -0.3384266
431, 3353095124, -97.05812072753906, 73.503173828125, 41.53185272216797, -0.1328228, 0.40594313, -0.2996683
432, 3353111791, -97.87491607666016, 73.63501739501953, 40.60121154785156, -0.17057095, 0.47496122, -0.31292343
433, 3353128458, -98.6387710571289, 73.77007293701172, 39.67399597167969, -0.27869388, 0.41666323, -0.39687443
434, 3353145125, -99.45812225341797, 73.87857055664062, 38.678192138671875, -0.31337568, 0.40798232, -0.32318974
435, 3353161792, -100.28917694091797, 73.9671630859375, 37.61587142944336, -0.25462088, 0.52013344, -0.16325569
436, 3353178459, -100.9549560546875, 74.05558776855469, 36.59751892089844, -0.26407608, 0.5932948, -0.2235241
437, 3353195126, -101.5357894897461, 74.15118408203125, 35.625038146972656, -0.29757598, 0.6176112, -0.31127453
438, 3353211793, -102.09720611572266, 74.24823760986328, 34.67854309082031, -0.25455707, 0.59997183, -0.14924145
439, 3353228460, -102.49116516113281, 74.34182739257812, 33.8565788269043, -0.26545286, 0.5953433, 0.054154396
440, 3353245127, -102.73835754394531, 74.43211364746094, 33.19170379638672, -0.35706082, 0.4376587, 0.118463516
441, 3353261794, -102.88736724853516, 74.51629638671875, 32.755367279052734, -0.4475824, 0.14737171, -0.0011301041
442, 3353278461, -102.98066711425781, 74.59123992919922, 32.59013748168945, -0.4709132, 0.0056177746, -0.1832304
443, 3353295128, -103.13519287109375, 74.61944580078125, 32.580875396728516, -0.2872137, 0.11020597, -0.2600155
444, 3353311795, -103.23509979248047, 74.60188293457031, 32.675804138183594, 0.09316746, 0.44560802, -0.057944298
445, 3353328462, -103.00228118896484, 74.57303619384766, 32.95516586303711, 0.18236718, 0.6011173, -0.025930405
446, 3353345129, -102.39949798583984, 74.57162475585938, 33.44916534423828, 0.008471364, 0.47239977, -0.09825039
447, 3353361796, -101.56517028808594, 74.59497833251953, 34.069053649902344, -0.21370918, 0.35161963, -0.12640667
448, 3353378463, -100.6907958984375, 74.60672760009766, 34.67116928100586, -0.27096537, 0.16077824, -0.11746025
449, 3353395130, -99.8194351196289, 74.59437561035156, 35.29737854003906, -0.22752188, 0.039234124, -0.1616106
450, 3353411797, -98.99456024169922, 74.5723876953125, 36.00242614746094, -0.21226193, -0.0969702, -0.2553692
451, 3353428464, -98.19187927246094, 74.55867004394531, 36.816627502441406, -0.1534417, -0.14591977, -0.30457592
452, 3353445131, -97.45355224609375, 74.5421142578125, 37.659481048583984, -0.021587832, -0.12131434, -0.23373318
453, 3353461798, -96.78182983398438, 74.50516510009766, 38.42758560180664, 0.16664594, -0.015656635, -0.08010578
454, 3353478465, -96.02500915527344, 74.45855712890625, 39.15115737915039, 0.30366516, 0.090377465, -0.030160904
455, 3353495132, -95.08954620361328, 74.42054748535156, 39.9298095703125, 0.11582903, -0.04471533, -0.15329361
456, 3353511799, -94.08727264404297, 74.39575958251953, 40.79167556762695, -0.09921109, -0.27352935, -0.26844501
457, 3353528466, -93.13062286376953, 74.34449005126953, 41.70293045043945, -0.041481435, -0.30095035, -0.13102627
458, 3353545133, -92.19771575927734, 74.2560043334961, 42.67609786987305, 0.055941492, -0.16909336, 0.08136654
459, 3353561800, -91.25484466552734, 74.15955352783203, 43.707435607910156, 0.13248931, -0.014130042, -0.090470314
460, 3353578467, -90.36309051513672, 74.08468627929688, 44.70628356933594, 0.087502696, 0.02728758, -0.32048512
461, 3353595134, -89.54845428466797, 74.01529693603516, 45.64126205444336, -0.054442838, -0.12405014, -0.31001282
462, 3353611801, -88.8410415649414, 73.92301940917969, 46.48472595214844, -0.04719543, -0.12709618, -0.24976826
463, 3353628468, -88.36359405517578, 73.79904174804688, 47.04827880859375, 0.25068972, 0.031664856, -0.14689732
464, 3353645135, -87.91151428222656, 73.67923736572266, 47.41901397705078, 0.3706518, 0.018046213, -0.16824818
465, 3353661802, -87.32579040527344, 73.58916473388672, 47.82450866699219, 0.17936252, -0.14792407, -0.37026405
466, 3353678469, -86.7970962524414, 73.5257797241211, 48.17543411254883, 0.04345198, -0.25893933, -0.45313358
467, 3353695136, -86.44639587402344, 73.47083282470703, 48.38916778564453, -0.011262259, -0.28956774, -0.38778305
468, 3353711803, -86.23115539550781, 73.4132308959961, 48.51771545410156, -0.062075302, -0.28903064, -0.28579807
469, 3353728470, -86.09319305419922, 73.35919952392578, 48.61104202270508, -0.010825682, -0.2472469, -0.2524252
470, 3353745137, -85.95972442626953, 73.31819152832031, 48.712928771972656, -0.0012838584, -0.24581732, -0.27634525
471, 3353761804, -85.89644622802734, 73.29198455810547, 48.760311126708984, -0.055963565, -0.3178229, -0.23849678
472, 3353778471, -85.9068603515625, 73.27911376953125, 48.774208068847656, -0.121498235, -0.39463314, -0.21776581
473, 3353795138, -86.02193450927734, 73.27118682861328, 48.74375534057617, -0.16053142, -0.37347138, -0.25503922
474, 3353811805, -86.18372344970703, 73.2660140991211, 48.673954010009766, -0.08101082, -0.23087637, -0.22372818
475, 3353828472, -86.3149185180664, 73.26747131347656, 48.60639190673828, -0.013083499, -0.15682295, -0.17690277
476, 3353845139, -86.37284851074219, 73.283935546875, 48.56695556640625, -0.059907768, -0.15143636, -0.19673347
477, 3353861806, -86.40657806396484, 73.3153076171875, 48.52849578857422, -0.17378144, -0.17991854, -0.33732796
478, 3353878473, -86.50495147705078, 73.35761260986328, 48.45149230957031, -0.23431009, -0.15673019, -0.30481625
479, 3353895140, -86.61995697021484, 73.39887237548828, 48.38971710205078, -0.25569174, -0.0758451, -0.27935886
480, 3353911807, -86.77620697021484, 73.44212341308594, 48.3036003112793, -0.21724755, -0.037174452, -0.31908894
481, 3353928474, -86.95471954345703, 73.48564910888672, 48.19821548461914, -0.20462768, 0.014849307, -0.30400276
482, 3353945141, -87.14199829101562, 73.533447265625, 48.09505081176758, -0.17100786, 0.028631786, -0.26151085
483, 3353961808, -87.33706665039062, 73.57894897460938, 47.97706604003906, -0.13898645, 0.08028429, -0.18573761
484, 3353978475, -87.49909210205078, 73.6239013671875, 47.859683990478516, -0.11244859, 0.13928366, -0.11894131
485, 3353995142, -87.6668701171875, 73.67195892333984, 47.712276458740234, -0.14935012, 0.019248936, -0.121251106
486, 3354011809, -87.7645492553711, 73.7098388671875, 47.62961959838867, -0.18553083, -0.019030092, -0.114172935
487, 3354028476, -87.80097198486328, 73.73399353027344, 47.61079025268555, -0.12466603, 0.029965041, -0.050658226
488, 3354045143, -87.8268051147461, 73.74951171875, 47.5921516418457, -0.05569915, 0.0055270283, 0.011317253
489, 3354061810, -87.78240966796875, 73.7607650756836, 47.62844467163086, -0.07058556, 0.08509049, -0.07336998
490, 3354078477, -87.70193481445312, 73.7745132446289, 47.70968246459961, -0.072022244, 0.09999634, -0.19230747
491, 3354095144, -87.63255310058594, 73.78372192382812, 47.787757873535156, -0.04566325, 0.094017595, -0.16057491
492, 3354111811, -87.57093811035156, 73.78553771972656, 47.862056732177734, -0.032574777, 0.080747634, -0.18890381
493, 3354128478, -87.52562713623047, 73.7778549194336, 47.936317443847656, -0.030534608, 0.01587836, -0.23600197
494, 3354145145, -87.48716735839844, 73.76296997070312, 48.0232048034668, -0.08147338, -0.018212507, -0.22618008
495, 3354161812, -87.44718933105469, 73.7372817993164, 48.109317779541016, -0.05783951, 0.005161585, -0.20006657
496, 3354178479, -87.39991760253906, 73.7024917602539, 48.174034118652344, 0.0047573056, 0.076686405, -0.22612858
497, 3354195146, -87.36865997314453, 73.66423034667969, 48.19123077392578, 0.07053651, 0.109263785, -0.21566868
498, 3354211813, -87.32164001464844, 73.6326675415039, 48.18933868408203, 0.05228527, 0.07798479, -0.2108841
499, 3354228480, -87.2723388671875, 73.60845184326172, 48.1808967590332, -0.031031588, 0.009585354, -0.2647457
500, 3354245147, -87.2667236328125, 73.58988952636719, 48.15323257446289, -0.1139012, -0.030503036, -0.27540684
501, 3354261814, -87.35252380371094, 73.57096862792969, 48.086265563964844, -0.101339154, -0.058162987, -0.22052002
502, 3354278481, -87.55728912353516, 73.55025482177734, 47.947940826416016, -0.1690471, -0.06603824, -0.14874268
503, 3354295148, -87.8217544555664, 73.52772521972656, 47.777530670166016, -0.18749887, -0.057682212, -0.12516785
504, 3354311815, -88.1374282836914, 73.50363159179688, 47.578861236572266, -0.21667497, -0.056186687, -0.102443695
505, 3354328482, -88.52433013916016, 73.48051452636719, 47.30830383300781, -0.14653492, 0.011656424, -0.111003876
506, 3354345149, -88.96752166748047, 73.46394348144531, 46.9664421081543, -0.11237991, 0.108510844, -0.08718586
507, 3354361816, -89.39935302734375, 73.45490264892578, 46.60192108154297, -0.07802565, 0.11181928, -0.121603966
508, 3354378483, -89.79033660888672, 73.44644165039062, 46.245155334472656, -0.087623335, 0.047316797, -0.2154007
509, 3354395150, -90.14321899414062, 73.43351745605469, 45.9163703918457, -0.13311382, 0.0042152307, -0.26304626
510, 3354411817, -90.52462005615234, 73.41853332519531, 45.59188461303711, -0.21338418, 0.0033182732, -0.24987221
511, 3354428484, -90.95703887939453, 73.39605712890625, 45.2484016418457, -0.25756973, 0.0564967, -0.14911366
512, 3354445151, -91.371337890625, 73.36528778076172, 44.918739318847656, -0.24068736, 0.13550942, -0.11638641
513, 3354461818, -91.74213409423828, 73.33992004394531, 44.61031723022461, -0.21769206, 0.1384379, -0.077739716
514, 3354478485, -92.07823944091797, 73.32604217529297, 44.33430480957031, -0.3179751, 0.10601555, -0.052262306
515, 3354495152, -92.48355865478516, 73.31090545654297, 44.03885269165039, -0.43166777, 0.10081217, 0.032004356
516, 3354511819, -93.07859802246094, 73.28580474853516, 43.63549041748047, -0.433888, 0.15362917, 0.1632967
517, 3354528486, -93.76152801513672, 73.24314880371094, 43.191532135009766, -0.27302566, 0.21527316, 0.113925934
518, 3354545153, -94.40241241455078, 73.17950439453125, 42.78170394897461, -0.09709876, 0.19161755, 0.015581131
519, 3354561820, -94.8858413696289, 73.0965347290039, 42.48540115356445, 0.01609975, 0.17278312, -0.1365223
520, 3354578487, -95.1991958618164, 73.00071716308594, 42.31740951538086, 0.022115825, 0.099860445, -0.30105495
521, 3354595154, -95.39348602294922, 72.88560485839844, 42.23748016357422, 0.0010978398, 0.042198576, -0.37778568
522, 3354611821, -95.49003601074219, 72.74649810791016, 42.24592590332031, 0.02353938, 0.021985404, -0.3719406
523, 3354628488, -95.51360321044922, 72.58932495117188, 42.32960891723633, -0.031284995, 0.03817914, -0.4235525
524, 3354645155, -95.53572845458984, 72.43125915527344, 42.412174224853516, -0.08892687, 0.081317365, -0.43113422
525, 3354661822, -95.60443878173828, 72.28301239013672, 42.44298553466797, -0.16553487, 0.0842313, -0.33855152
526, 3354678489, -95.7243881225586, 72.14514923095703, 42.409732818603516, -0.2164486, 0.14159568, -0.18249702
527, 3354695156, -95.92060852050781, 72.0285873413086, 42.32070541381836, -0.36691657, 0.1656088, -0.19349289
528, 3354711823, -96.3456039428711, 71.93797302246094, 42.06857681274414, -0.40221637, 0.27111477, -0.23196983
529, 3354728490, -97.08036804199219, 71.87232971191406, 41.58334732055664, -0.25057366, 0.44727936, -0.21335506
530, 3354745157, -98.08824920654297, 71.82678985595703, 40.858070373535156, -0.0056986865, 0.6468304, -0.12604904
531, 3354761824, -99.23109436035156, 71.80204010009766, 39.99009323120117, 0.10706818, 0.7379703, -0.14589787
532, 3354778491, -100.43180847167969, 71.79431915283203, 39.02836990356445, 0.0074370583, 0.7650243, -0.08952141
533, 3354795158, -101.78545379638672, 71.79523468017578, 37.86688232421875, -0.18842003, 0.801228, -0.08018017
534, 3354811825, -103.36393737792969, 71.79817199707031, 36.461181640625, -0.2873581, 0.84861434, -0.11653137
535, 3354828492, -105.15576934814453, 71.79656219482422, 34.815555572509766, -0.1915164, 0.96951205, -0.054739952
536, 3354845159, -106.975830078125, 71.79481506347656, 33.032535552978516, -0.0047798804, 1.0935011, 0.06854534
537, 3354861826, -108.62966918945312, 71.80850219726562, 31.26788330078125, 0.12957683, 1.0501367, 0.048275948
538, 3354878493, -110.13126373291016, 71.84571075439453, 29.56865692138672, 0.06728176, 0.88499886, -0.061553955
539, 3354895160, -111.58219909667969, 71.89453125, 27.94399642944336, -0.13551117, 0.73703265, -0.0939312
540, 3354911827, -113.03219604492188, 71.93816375732422, 26.407506942749023, -0.25325638, 0.7081353, 0.028625488
541, 3354928494, -114.46852111816406, 71.97403717041016, 24.976613998413086, -0.2867698, 0.74316984, 0.18241596
542, 3354945161, -115.85444641113281, 72.01500701904297, 23.665616989135742, -0.23093717, 0.7823606, 0.31332493
543, 3354961828, -117.16423034667969, 72.06360626220703, 22.455028533935547, -0.14930229, 0.8119685, 0.5001011
544, 3354978495, -118.34455871582031, 72.11898040771484, 21.33366584777832, -0.05739427, 0.8571657, 0.69135666
545, 3354995162, -119.30142974853516, 72.19881439208984, 20.33884048461914, 0.10593972, 0.85492766, 0.6531038
546, 3355011829, -119.98910522460938, 72.3205337524414, 19.542312622070312, 0.21041621, 0.73761487, 0.27083588
547, 3355028496, -120.4842529296875, 72.47191619873047, 18.935720443725586, 0.2881549, 0.63639635, -0.1987915
548, 3355045163, -120.81886291503906, 72.63432312011719, 18.498355865478516, 0.4043308, 0.5712477, -0.59234905
549, 3355061830, -120.99949645996094, 72.80403137207031, 18.241209030151367, 0.47020918, 0.51303625, -0.96849155
550, 3355078497, -121.03484344482422, 72.97877502441406, 18.16529655456543, 0.58390784, 0.50446314, -1.2469587
551, 3355095164, -120.91291046142578, 73.15511322021484, 18.252809524536133, 0.5132763, 0.46532828, -1.1437187
552, 3355111831, -120.72547912597656, 73.33631896972656, 18.393129348754883, 0.27266088, 0.26983333, -0.6966772
553, 3355128498, -120.50122833251953, 73.5203628540039, 18.565757751464844, 0.25525302, 0.005434494, -0.75228214
554, 3355145165, -120.18492889404297, 73.67391967773438, 18.942232131958008, 0.13215773, -0.3803825, -0.9140177
555, 3355161832, -119.82246398925781, 73.79854583740234, 19.516220092773438, -0.01984172, -0.62508094, -0.84692764
556, 3355178499, -119.38094329833984, 73.89667510986328, 20.247547149658203, 0.09610453, -0.6995564, -0.8939676
557, 3355195166, -118.81273651123047, 73.96604919433594, 21.111495971679688, 0.09559761, -0.7536516, -1.0515289
558, 3355211833, -118.08748626708984, 74.03533935546875, 22.10607147216797, 0.025666859, -0.7738403, -1.2368994
559, 3355228500, -117.23213958740234, 74.12151336669922, 23.18718910217285, 0.015397333, -0.7509586, -1.2535706
560, 3355245167, -116.29692077636719, 74.20491790771484, 24.310453414916992, -0.0083172005, -0.7573419, -1.1541004
561, 3355261834, -115.30810546875, 74.26422882080078, 25.44561004638672, -0.04359743, -0.8371455, -1.0265589
562, 3355278501, -114.23826599121094, 74.29208374023438, 26.646215438842773, -0.09576728, -1.0091342, -0.9691553
563, 3355295168, -113.15657043457031, 74.30055236816406, 27.892696380615234, -0.14354521, -1.2317805, -0.92506504
564, 3355311835, -112.10228729248047, 74.29735565185547, 29.157211303710938, -0.19276595, -1.3514031, -0.5955305
565, 3355328502, -111.01939392089844, 74.29491424560547, 30.433229446411133, -0.15789095, -1.3592298, -0.2026825
566, 3355345169, -109.89798736572266, 74.3027572631836, 31.69301414489746, -0.0609607, -1.3439338, -0.09537029
567, 3355361836, -108.74433135986328, 74.31321716308594, 32.93463134765625, 0.012961237, -1.4155126, -0.20539665
568, 3355378503, -107.59979248046875, 74.32197570800781, 34.14824295043945, 0.05306636, -1.5138991, -0.23829079
569, 3355395170, -106.47724151611328, 74.33543395996094, 35.35135269165039, 0.019713815, -1.6004546, -0.39237022
570, 3355411837, -105.4382095336914, 74.35884094238281, 36.50326156616211, 0.010477938, -1.6139714, -0.60191345
571, 3355428504, -104.54683685302734, 74.38761901855469, 37.5419921875, 0.016044011, -1.4482931, -0.6192627
572, 3355445171, -103.84197235107422, 74.4234390258789, 38.41181945800781, -0.031878367, -1.2989931, -0.59371567
573, 3355461838, -103.33747100830078, 74.46411895751953, 39.05729293823242, -0.012946513, -1.1675712, -0.56100464
574, 3355478505, -103.0271224975586, 74.49787902832031, 39.486297607421875, 0.0056898296, -1.0165807, -0.41172695
575, 3355495172, -102.89561462402344, 74.5320053100586, 39.71260452270508, 0.0026953707, -0.9321818, -0.33272743
576, 3355511839, -102.92037963867188, 74.56927490234375, 39.75093078613281, 0.04221858, -0.9025557, -0.30289268
577, 3355528506, -102.99605560302734, 74.6044921875, 39.6949577331543, 0.12936972, -0.8596421, -0.16475677
578, 3355545173, -102.94275665283203, 74.63827514648438, 39.70307540893555, 0.21674484, -0.83798325, -0.020401955
579, 3355561840, -102.74856567382812, 74.6663589477539, 39.802589416503906, 0.28966397, -0.8192063, -0.10293198
580, 3355578507, -102.47843933105469, 74.67591857910156, 39.94344711303711, 0.2878556, -0.7924927, -0.1276083
581, 3355595174, -102.1565933227539, 74.66124725341797, 40.1124382019043, 0.2650947, -0.74702173, -0.12542439
582, 3355611841, -101.7929458618164, 74.62507629394531, 40.29538345336914, 0.29717097, -0.6965724, -0.24010181
583, 3355628508, -101.3758544921875, 74.57225036621094, 40.50461196899414, 0.2302334, -0.6035706, -0.30711555
584, 3355645175, -100.92145538330078, 74.5068588256836, 40.747737884521484, 0.08245999, -0.55067515, -0.2550974
585, 3355661842, -100.52050018310547, 74.43657684326172, 40.940513610839844, -0.04108126, -0.49039882, -0.24531078
586, 3355678509, -100.24290466308594, 74.36280059814453, 41.01731872558594, -0.091228686, -0.35618398, -0.31895924
587, 3355695176, -100.07262420654297, 74.29354095458984, 41.014163970947266, -0.14428471, -0.27399984, -0.35263348
588, 3355711843, -99.98233795166016, 74.24224090576172, 40.96957015991211, -0.26663113, -0.17060654, -0.37061405
589, 3355728510, -100.00055694580078, 74.21186065673828, 40.87214279174805, -0.37294114, -0.0272431, -0.4102955
590, 3355745177, -100.18214416503906, 74.19764709472656, 40.674530029296875, -0.47740284, 0.15100983, -0.4678154
591, 3355761844, -100.53113555908203, 74.19608306884766, 40.37636947631836, -0.56165224, 0.23304275, -0.51798725
592, 3355778511, -101.00559997558594, 74.19795989990234, 40.0140495300293, -0.5986681, 0.319706, -0.5155468
593, 3355795178, -101.60819244384766, 74.1976318359375, 39.58189010620117, -0.65072066, 0.38822323, -0.51031685
594, 3355811845, -102.3129653930664, 74.19523620605469, 39.06444549560547, -0.63499665, 0.48970726, -0.48963642
595, 3355828512, -103.0898666381836, 74.19065856933594, 38.4748649597168, -0.6209011, 0.57903355, -0.36829758
596, 3355845179, -103.89805603027344, 74.18479919433594, 37.82412338256836, -0.58106154, 0.6435166, -0.18177319
597, 3355861846, -104.67306518554688, 74.1826171875, 37.1414794921875, -0.5113888, 0.71120214, -0.05113983
598, 3355878513, -105.45307922363281, 74.18838500976562, 36.39847946166992, -0.48268008, 0.75510144, 0.014253616
599, 3355895180, -106.26203155517578, 74.202880859375, 35.618690490722656, -0.52947617, 0.7508388, 0.11221409
600, 3355911847, -107.111572265625, 74.20962524414062, 34.815120697021484, -0.51102775, 0.76186895, 0.20419121
601, 3355928514, -107.99370574951172, 74.19920349121094, 33.986175537109375, -0.506428, 0.8039226, 0.32760906
602, 3355945181, -108.87244415283203, 74.17467498779297, 33.15354919433594, -0.4920075, 0.8164281, 0.5232458
603, 3355961848, -109.71172332763672, 74.1517562866211, 32.352046966552734, -0.4825786, 0.8415287, 0.5937424
604, 3355978515, -110.52838897705078, 74.12765502929688, 31.568782806396484, -0.47616798, 0.87762606, 0.6508379
605, 3355995182, -111.35076141357422, 74.10577392578125, 30.775665283203125, -0.38857985, 0.9166217, 0.7234802
606, 3356011849, -112.26210021972656, 74.07786560058594, 29.90821647644043, -0.32994682, 1.0443687, 0.74743366
607, 3356028516, -113.2944564819336, 74.03582000732422, 28.9486026763916, -0.2962757, 1.1989208, 0.81782055
608, 3356045183, -114.43413543701172, 73.98189544677734, 27.874494552612305, -0.26083335, 1.3366835, 1.0755949
609, 3356061850, -115.69803619384766, 73.92018127441406, 26.616968154907227, -0.19415553, 1.4629941, 1.3926535
610, 3356078517, -117.0112533569336, 73.87110137939453, 25.19988250732422, -0.15006363, 1.4552692, 1.5852127
611, 3356095184, -118.41030883789062, 73.85379791259766, 23.63103485107422, -0.30282, 1.400784, 1.6807413
612, 3356111851, -120.00852966308594, 73.8492660522461, 21.87946319580078, -0.40542307, 1.4364516, 1.8465118
613, 3356128518, -121.8584976196289, 73.83451843261719, 19.906946182250977, -0.20010377, 1.5322535, 1.8568993
614, 3356145185, -123.82771301269531, 73.80841827392578, 17.79940414428711, 0.1580112, 1.5718269, 1.6433058
615, 3356161852, -125.68386840820312, 73.80017852783203, 15.786090850830078, 0.39794698, 1.3596275, 1.255271
616, 3356178519, -127.23713684082031, 73.83100891113281, 14.098217964172363, 0.45192477, 1.0912415, 0.8194027
617, 3356195186, -128.44845581054688, 73.8973388671875, 12.837620735168457, 0.47741684, 0.93931377, 0.26112747
618, 3356211853, -129.3997344970703, 73.97504425048828, 11.955636978149414, 0.49775982, 0.9728699, -0.22385788
619, 3356228520, -130.0915069580078, 74.04859924316406, 11.40602970123291, 0.58044213, 1.1841227, -0.46209908
620, 3356245187, -130.46859741210938, 74.11587524414062, 11.126653671264648, 0.59106106, 1.4143363, -0.64278126
621, 3356261854, -130.4512939453125, 74.18201446533203, 11.116799354553223, 0.5240544, 1.4153584, -0.77233315
622, 3356278521, -130.0596466064453, 74.24527740478516, 11.344942092895508, 0.38236994, 1.3300565, -0.8626213
623, 3356295188, -129.38723754882812, 74.30506134033203, 11.75153923034668, 0.31418267, 1.191412, -1.0768585
624, 3356311855, -128.53076171875, 74.35466003417969, 12.271530151367188, 0.2518916, 1.1565955, -1.3043852
625, 3356328522, -127.5505599975586, 74.39360809326172, 12.876829147338867, 0.20844193, 1.1815648, -1.4809151
626, 3356345189, -126.45360565185547, 74.43785858154297, 13.569289207458496, 0.23852749, 1.2342309, -1.6704636
627, 3356361856, -125.26493072509766, 74.50199890136719, 14.337813377380371, 0.28515285, 1.249368, -1.8953557
628, 3356378523, -124.06339263916016, 74.59452056884766, 15.1508150100708, 0.22630139, 1.2446666, -1.9527879
629, 3356395190, -123.01249694824219, 74.73069763183594, 15.87851333618164, 0.23447548, 1.3003253, -1.7646656
630, 3356411857, -122.14095306396484, 74.92198944091797, 16.497541427612305, 0.29183617, 1.4002336, -1.6660414
631, 3356428524, -121.53508758544922, 75.16010284423828, 16.97101402282715, 0.3636051, 1.4349357, -1.8077307
632, 3356445191, -121.26487731933594, 75.44586944580078, 17.265213012695312, 0.37811023, 1.4635932, -1.972969
633, 3356461858, -121.40079498291016, 75.7555923461914, 17.410808563232422, 0.033482745, 1.4843034, -1.1332111
634, 3356478525, -122.27819061279297, 76.06407928466797, 17.01177978515625, -0.27877513, 1.3501812, 0.12796211
635, 3356495192, -123.438720703125, 76.3729476928711, 16.318458557128906, 0.19085789, 1.1494752, 0.24169159
636, 3356511859, -124.36397552490234, 76.66585540771484, 15.964312553405762, 0.20965923, 0.55197376, 0.3202114
637, 3356528526, -125.05976867675781, 76.97588348388672, 15.878124237060547, 0.20727709, 0.018414116, 0.783371
638, 3356545193, -124.98914337158203, 77.3249740600586, 16.472244262695312, 0.43378025, -0.5286647, 0.43490505
639, 3356561860, -123.89192962646484, 77.6604232788086, 18.083314895629883, 0.34625754, -1.3342052, -0.3273096
640, 3356578527, -122.00434112548828, 77.97811889648438, 20.619518280029297, 0.18780743, -1.7509875, -0.44730377
641, 3356595194, -119.38248443603516, 78.28936004638672, 23.963802337646484, 0.36133608, -1.6165386, -0.25611973
642, 3356611861, -115.92530822753906, 78.53997802734375, 27.93487548828125, 0.57739323, -1.4160995, -0.3914318
643, 3356628528, -111.5875473022461, 78.72462463378906, 32.38319396972656, 0.7281658, -1.5197321, -0.6839638
644, 3356645195, -106.69308471679688, 78.85594177246094, 37.051734924316406, 0.4872206, -1.774218, -0.8421097
645, 3356661862, -101.55374145507812, 78.9359130859375, 41.73436737060547, 0.13725315, -2.0257208, -0.8709183
646, 3356678529, -96.52810668945312, 78.9572982788086, 46.130157470703125, -0.06459633, -2.1152039, -1.0688324
647, 3356695196, -91.85667419433594, 78.91097259521484, 50.11943817138672, -0.19999309, -2.1096928, -1.2787895
648, 3356711863, -87.5752182006836, 78.78282928466797, 53.78787612915039, -0.38340247, -2.077367, -1.187356
649, 3356728530, -83.80191040039062, 78.58843231201172, 57.02549362182617, -0.4036615, -2.1272962, -1.0933008
650, 3356745197, -80.81609344482422, 78.37166595458984, 59.51541519165039, -0.39128625, -2.0989463, -1.0631819
651, 3356761864, -78.59614562988281, 78.17214965820312, 61.33692932128906, -0.57974076, -2.0435863, -0.9704943
652, 3356778531, -77.06260681152344, 78.00283813476562, 62.54750442504883, -0.6744934, -1.925085, -0.728302
653, 3356795198, -76.13873291015625, 77.87307739257812, 63.12528610229492, -0.49285483, -1.6449732, -0.29039288
654, 3356811865, -75.6002197265625, 77.7841796875, 63.24910354614258, -0.3471607, -1.3681159, -0.019838333
655, 3356828532, -75.31238555908203, 77.74674987792969, 63.124725341796875, -0.52128667, -1.3077704, 0.12743568
656, 3356845199, -75.37580108642578, 77.765380859375, 62.764686584472656, -0.8059955, -1.3528512, 0.2905779
657, 3356861866, -75.82882690429688, 77.82047271728516, 62.17533493041992, -0.74926186, -1.321079, 0.35711384
658, 3356878533, -76.62750244140625, 77.88790130615234, 61.37916946411133, -0.53247947, -1.120537, 0.19702625
659, 3356895200, -77.57793426513672, 77.96295928955078, 60.51056671142578, -0.3366874, -0.8918717, -0.010065079
660, 3356911867, -78.56719207763672, 78.05199432373047, 59.69566345214844, -0.3701379, -0.7833951, 0.053632736
661, 3356928534, -79.62461853027344, 78.14424133300781, 58.89842987060547, -0.5265037, -0.77251333, 0.18273449
662, 3356945201, -80.80561065673828, 78.19963073730469, 58.0272331237793, -0.560381, -0.6686923, 0.02054596
663, 3356961868, -82.20194244384766, 78.17415618896484, 56.99473571777344, -0.556758, -0.6379855, -0.15752697
664, 3356978535, -83.7453384399414, 78.06005859375, 55.868587493896484, -0.60526496, -0.6204122, -0.14117336
665, 3356995202, -85.30935668945312, 77.87097930908203, 54.6995735168457, -0.5720175, -0.51650023, 0.0650959
666, 3357011869, -86.82048797607422, 77.6439437866211, 53.428218841552734, -0.44584212, -0.2968259, 0.3753538
667, 3357028536, -88.06229400634766, 77.41229248046875, 52.15745544433594, -0.28899762, -0.0793956, 0.4383278
668, 3357045203, -88.96302795410156, 77.16820526123047, 51.010711669921875, -0.2590912, -0.103925705, 0.26838112
669, 3357061870, -89.72578430175781, 76.87471008300781, 49.905147552490234, -0.33824876, -0.27579287, 0.1494751
670, 3357078537, -90.57592010498047, 76.49172973632812, 48.71049118041992, -0.5295056, -0.47138458, 0.053609848
671, 3357095204, -91.42407989501953, 76.01467895507812, 47.53664016723633, -0.68314075, -0.54708755, -0.09422493
672, 3357111871, -92.1912841796875, 75.45532989501953, 46.49167251586914, -0.7659726, -0.5331686, -0.24116802
673, 3357128538, -92.84262084960938, 74.8345718383789, 45.61552047729492, -0.9464323, -0.46781015, -0.14030647
674, 3357145205, -93.40757751464844, 74.18377685546875, 44.83372497558594, -0.9850598, -0.22980686, 0.05485916
675, 3357161872, -93.98957061767578, 73.52204895019531, 43.990501403808594, -0.82276946, 0.06498025, 0.14512062
676, 3357178539, -94.56117248535156, 72.8690414428711, 43.08688735961914, -0.6290307, 0.24075831, 0.15372372
677, 3357195206, -95.00409698486328, 72.2156982421875, 42.26288986206055, -0.65770227, 0.24957055, -0.015501022
678, 3357211873, -95.40388488769531, 71.53559875488281, 41.54885482788086, -1.275738, 0.122162126, 0.72868156
679, 3357228540, -96.15789794921875, 70.8968734741211, 40.51570510864258, -1.7659191, -0.17280255, 1.8568554
680, 3357245207, -97.07574462890625, 70.34720611572266, 39.04646301269531, -1.0530244, 0.10392839, 1.5955238
681, 3357261874, -97.6182861328125, 69.79137420654297, 37.79079818725586, -0.41184145, -1.553415E-4, 1.0267029
682, 3357278541, -97.96503448486328, 69.28807067871094, 36.81101608276367, -0.5704972, -0.27903113, 0.55545044
683, 3357295208, -98.47926330566406, 68.87274932861328, 35.845947265625, -0.5536044, -0.13408273, -0.18071842
684, 3357311875, -99.24055480957031, 68.47411346435547, 34.82982635498047, -0.11507145, 0.23716646, -0.7760763
685, 3357328542, -100.02145385742188, 68.06830596923828, 33.95643615722656, 0.22603196, 0.3939166, -1.0035086
686, 3357345209, -100.73597717285156, 67.6900863647461, 33.25273895263672, 0.29577303, 0.50550026, -1.0538664
687, 3357361876, -101.504638671875, 67.31179809570312, 32.56605529785156, 0.032322153, 0.5123029, -1.1192608
688, 3357378543, -102.34563446044922, 66.91934204101562, 31.892024993896484, -0.078943044, 0.32190716, -1.0740252
689, 3357395210, -103.24449920654297, 66.53711700439453, 31.231828689575195, 0.09336114, 0.36090368, -0.8694992
690, 3357411877, -104.1121597290039, 66.19790649414062, 30.60103988647461, 0.49770623, 0.46966016, -0.81753063
691, 3357428544, -104.7940673828125, 65.91484069824219, 30.02396583557129, 0.76472753, 0.6036835, -0.97168064
692, 3357445211, -105.22400665283203, 65.6750259399414, 29.501514434814453, 0.68444663, 0.66873443, -1.0872593
693, 3357461878, -105.48455810546875, 65.48062896728516, 29.022275924682617, 0.3722208, 0.6270763, -1.2254868
694, 3357478545, -105.7767333984375, 65.29486846923828, 28.486671447753906, 0.07065122, 0.5051366, -1.3359127
695, 3357495212, -106.21521759033203, 65.09186553955078, 27.836393356323242, -0.19965412, 0.37494856, -1.3027534
696, 3357511879, -106.75548553466797, 64.87508392333984, 27.137266159057617, -0.1985561, 0.2149366, -1.1373415
697, 3357528546, -107.24112701416016, 64.65864562988281, 26.49806022644043, -0.092463285, 0.1149326, -0.8201351
698, 3357545213, -107.56594848632812, 64.48512268066406, 25.962467193603516, 0.08733416, 0.17220578, -0.4308939
699, 3357561880, -107.69004821777344, 64.37690734863281, 25.517654418945312, 0.41245154, 0.23178829, -0.26006508
700, 3357578547, -107.59458923339844, 64.32569122314453, 25.177265167236328, 0.59692353, 0.3208276, -0.3588705
701, 3357595214, -107.31746673583984, 64.3165283203125, 24.97060203552246, 0.5334239, 0.29145822, -0.55712414
702, 3357611881, -106.99361419677734, 64.32278442382812, 24.865753173828125, 0.3714254, 0.09277151, -0.7304268
703, 3357628548, -106.75641632080078, 64.31269836425781, 24.809219360351562, 0.24735436, -0.0710123, -0.85611725
704, 3357645215, -106.6158676147461, 64.28178405761719, 24.828943252563477, 0.21271862, -0.17148204, -0.86322975
705, 3357661882, -106.56378173828125, 64.24321746826172, 24.940868377685547, 0.20136891, -0.17971648, -0.7052965
706, 3357678549, -106.60304260253906, 64.20793914794922, 25.093700408935547, 0.30625182, -0.055757772, -0.52486897
707, 3357695216, -106.66223907470703, 64.18800354003906, 25.245412826538086, 0.6129214, 0.14440592, -0.3629198
708, 3357711883, -106.62872314453125, 64.18399810791016, 25.405553817749023, 0.79401135, 0.22850333, -0.21893597
709, 3357728550, -106.45301818847656, 64.19293212890625, 25.5977840423584, 0.7120549, 0.16337098, 0.046774864
710, 3357745217, -106.22541809082031, 64.20525360107422, 25.764833450317383, 0.43349466, 0.064275846, 0.40082264
711, 3357761884, -106.03392791748047, 64.21468353271484, 25.84678077697754, 0.33623445, 0.020749826, 0.54798126
712, 3357778551, -105.95563507080078, 64.21240997314453, 25.825761795043945, 0.47471005, 0.024127105, 0.39911938
713, 3357795218, -105.97938537597656, 64.2099838256836, 25.736709594726562, 0.60632116, 0.11815632, 0.15210247
714, 3357811885, -106.06896209716797, 64.21611785888672, 25.624048233032227, 0.717876, 0.23923485, -0.19029331
715, 3357828552, -106.24781799316406, 64.21466827392578, 25.4743595123291, 0.7704619, 0.31808174, -0.4929104
716, 3357845219, -106.57220458984375, 64.18927764892578, 25.22643280029297, 0.83350635, 0.38720647, -0.6176863
717, 3357861886, -107.01396942138672, 64.15006256103516, 24.894969940185547, 0.84266007, 0.4464922, -0.69824314
718, 3357878553, -107.50491333007812, 64.09647369384766, 24.534727096557617, 0.79887986, 0.39267024, -0.7406664
719, 3357895220, -108.05740356445312, 64.02135467529297, 24.163639068603516, 0.5218265, 0.39694157, -0.56204414
720, 3357911887, -108.69607543945312, 63.92707443237305, 23.713956832885742, 0.3696282, 0.41489214, -0.2841177
721, 3357928554, -109.30392456054688, 63.807899475097656, 23.20718002319336, 0.3918351, 0.3578353, -0.05970192
722, 3357945221, -109.7635269165039, 63.666168212890625, 22.717437744140625, 0.3537408, 0.19723208, 0.061066628
723, 3357961888, -110.04153442382812, 63.528785705566406, 22.279972076416016, 0.30204573, 0.0058855433, 0.026536942
724, 3357978555, -110.19061279296875, 63.39944839477539, 21.90816879272461, 0.16062546, -0.14314283, -0.10776234
725, 3357995222, -110.28791046142578, 63.25796890258789, 21.585426330566406, 0.09120586, -0.3167581, -0.30332565
726, 3358011889, -110.34722900390625, 63.09937286376953, 21.357845306396484, 0.061549768, -0.44062093, -0.43408108
727, 3358028556, -110.40043640136719, 62.92854690551758, 21.23415756225586, 0.081787534, -0.39201126, -0.5627203
728, 3358045223, -110.45684814453125, 62.76071548461914, 21.197843551635742, 0.081447564, -0.32901263, -0.68681717
729, 3358061890, -110.56807708740234, 62.598663330078125, 21.164827346801758, 0.09810258, -0.26788118, -0.6202717
730, 3358078557, -110.7410888671875, 62.4543571472168, 21.055980682373047, 0.2540028, -0.1206134, -0.57160664
731, 3358095224, -110.87926483154297, 62.334354400634766, 20.881168365478516, 0.48397306, -0.02633832, -0.65439224
732, 3358111891, -110.9360122680664, 62.2475700378418, 20.687191009521484, 0.41202718, -0.06799421, -0.71494484
733, 3358128558, -110.96831512451172, 62.202430725097656, 20.486459732055664, 0.17173874, -0.20741957, -0.7008381
734, 3358145225, -111.07340240478516, 62.18172836303711, 20.249509811401367, 0.0345546, -0.2508714, -0.681509
735, 3358161892, -111.31536102294922, 62.157752990722656, 19.94829559326172, 0.1469126, -0.28133354, -0.7100992
736, 3358178559, -111.66667938232422, 62.136226654052734, 19.61130714416504, 0.27369514, -0.17927907, -0.6169386
737, 3358195226, -112.12713623046875, 62.15190124511719, 19.237319946289062, 0.31905514, -0.084849544, -0.52422905
738, 3358211893, -112.68290710449219, 62.203529357910156, 18.8177547454834, 0.39138368, 0.009876221, -0.5650749
739, 3358228560, -113.25003814697266, 62.275997161865234, 18.391294479370117, 0.5217157, 0.041572515, -0.7181568
740, 3358245227, -113.803466796875, 62.367244720458984, 17.98972511291504, 0.60591197, 0.0668458, -0.83845043
741, 3358261894, -114.37252044677734, 62.48326110839844, 17.651386260986328, 0.47970915, 0.008672526, -0.8261318
742, 3358278561, -115.0351791381836, 62.60590362548828, 17.327499389648438, 0.33008853, 0.13409324, -0.6403799
743, 3358295228, -115.69518280029297, 62.720760345458984, 17.018821716308594, 0.42902866, 0.3354679, -0.44210815
744, 3358311895, -116.2076644897461, 62.83300018310547, 16.758756637573242, 0.5572669, 0.43365493, -0.3818264
745, 3358328562, -116.51306915283203, 62.96004867553711, 16.58319091796875, 0.4592913, 0.4318049, -0.40756893
746, 3358345229, -116.6930160522461, 63.102725982666016, 16.46915054321289, 0.21768558, 0.3727671, -0.5388489
747, 3358361896, -116.8749771118164, 63.23753356933594, 16.342763900756836, 0.08905359, 0.3184275, -0.6331835
748, 3358378563, -117.06935119628906, 63.343467712402344, 16.22197723388672, 0.14540143, 0.35643908, -0.6029978
749, 3358395230, -117.25276947021484, 63.439971923828125, 16.143342971801758, 0.24636285, 0.40201196, -0.50469494
750, 3358411897, -117.378662109375, 63.558433532714844, 16.119312286376953, 0.28759998, 0.3859928, -0.48950958
751, 3358428564, -117.42162322998047, 63.70305252075195, 16.1530818939209, 0.34016386, 0.37584418, -0.49656105
752, 3358445231, -117.36601257324219, 63.865962982177734, 16.249448776245117, 0.37134615, 0.29593226, -0.43501663
753, 3358461898, -117.2027816772461, 64.05284118652344, 16.450674057006836, 0.34065408, 0.15694521, -0.49239445
754, 3358478565, -116.9614028930664, 64.25260162353516, 16.755355834960938, 0.25839964, 0.023691703, -0.61018085
755, 3358495232, -116.6878433227539, 64.44639587402344, 17.12416648864746, 0.17776695, -0.10428087, -0.6718025
756, 3358511899, -116.32901000976562, 64.62690734863281, 17.580371856689453, 0.22052029, -0.14877984, -0.69923496
757, 3358528566, -115.85810852050781, 64.80738830566406, 18.12499237060547, 0.22986966, -0.11697037, -0.6350899
758, 3358545233, -115.30911254882812, 65.00619506835938, 18.714914321899414, 0.16740087, -0.10805443, -0.48408318
759, 3358561900, -114.70584106445312, 65.22149658203125, 19.28276824951172, 0.19638899, -0.104990475, -0.3664341
760, 3358578567, -114.01934814453125, 65.45854187011719, 19.83527946472168, 0.2887651, -0.10011257, -0.36672497
761, 3358595234, -113.23239135742188, 65.72613525390625, 20.419260025024414, 0.4056753, -0.17978466, -0.47189045
762, 3358611901, -112.40283966064453, 66.01318359375, 21.04764747619629, 0.5029749, -0.30088487, -0.6561861
763, 3358628568, -111.58906555175781, 66.30812072753906, 21.727846145629883, 0.48023245, -0.35180962, -0.8083725
764, 3358645235, -110.77458953857422, 66.60884857177734, 22.464641571044922, 0.47589126, -0.24250574, -0.89216995
765, 3358661902, -109.96513366699219, 66.9145736694336, 23.243358612060547, 0.5459345, -0.09536336, -0.9215584
766, 3358678569, -109.13394165039062, 67.23909759521484, 24.052989959716797, 0.57630557, 0.07846646, -0.99398327
767, 3358695236, -108.2685546875, 67.59542846679688, 24.889291763305664, 0.5185438, 0.21456127, -1.0009117
768, 3358711903, -107.4448013305664, 67.99382019042969, 25.687393188476562, 0.5162324, 0.46347624, -1.0027418
769, 3358728570, -106.72679138183594, 68.43787384033203, 26.404691696166992, 0.63520455, 0.7462149, -1.0776987
770, 3358745237, -106.08077239990234, 68.93047332763672, 27.056026458740234, 0.7773009, 0.9592074, -1.1384516
771, 3358761904, -105.46685028076172, 69.48646545410156, 27.65093231201172, 0.848443, 1.0579405, -1.1130323
772, 3358778571, -104.8968276977539, 70.11238098144531, 28.208784103393555, 0.69243, 1.026889, -1.0866289
773, 3358795238, -104.51227569580078, 70.79048919677734, 28.671358108520508, 0.3022673, 0.9547836, -0.5154848
774, 3358811905, -104.60223388671875, 71.50205993652344, 28.747560501098633, 0.06619856, 0.9301107, 0.1895895
775, 3358828572, -104.99427032470703, 72.22855377197266, 28.489152908325195, 0.42931828, 0.8295672, 0.103188515
776, 3358845239, -105.2750244140625, 72.92890167236328, 28.42903709411621, 0.40891007, 0.35598642, -0.2445116
777, 3358861906, -105.61453247070312, 73.59667205810547, 28.57277488708496, -0.022185672, 0.018692613, -0.43836975
778, 3358878573, -106.14494323730469, 74.22660827636719, 28.7513370513916, -0.06832439, 0.09689085, -0.59396553
779, 3358895240, -106.62205505371094, 74.79130554199219, 29.05586814880371, 0.06487173, 0.21911444, -0.6060753
780, 3358911907, -106.80038452148438, 75.32664489746094, 29.63910675048828, 0.07851863, 0.1540171, -0.37159634
781, 3358928574, -106.59574127197266, 75.8810043334961, 30.55779457092285, -0.033372216, 0.15919554, -0.10752964
782, 3358945241, -106.16527557373047, 76.43106842041016, 31.601966857910156, -0.21218252, 0.11488253, 0.076841354
783, 3358961908, -105.54029083251953, 76.943603515625, 32.65378189086914, -0.32151887, -0.0058359234, 0.44821644
784, 3358978575, -104.54378509521484, 77.40450286865234, 33.85335159301758, -0.36383098, -0.22902076, 0.8017788
785, 3358995242, -103.08406066894531, 77.80418395996094, 35.34733200073242, -0.56885755, -0.55395585, 1.0908594
786, 3359011909, -101.2921371459961, 78.13124084472656, 37.07069778442383, -0.74357885, -0.85666525, 1.3612957
787, 3359028576, -99.35558319091797, 78.376953125, 38.88621520996094, -0.81414, -1.0352342, 1.4200287
788, 3359045243, -97.30802917480469, 78.54927825927734, 40.7769660949707, -0.68397605, -1.0610095, 1.4126682
789, 3359061910, -95.16381072998047, 78.66839599609375, 42.72713851928711, -0.5203509, -0.939851, 1.2325754
790, 3359078577, -92.78749084472656, 78.762939453125, 44.826988220214844, -0.32492515, -0.85670114, 0.6734648
791, 3359095244, -90.05758666992188, 78.83052062988281, 47.216949462890625, -0.1543253, -0.88571256, 0.08121872
792, 3359111911, -87.12296295166016, 78.84781646728516, 49.83958435058594, -0.06955399, -1.0156822, -0.20857811
793, 3359128578, -84.13731384277344, 78.8070068359375, 52.576663970947266, -0.017559988, -1.2060559, -0.4309187
794, 3359145245, -81.16075134277344, 78.69383239746094, 55.37392044067383, -0.06945626, -1.3219434, -0.74726105
795, 3359161912, -78.32172393798828, 78.51210021972656, 58.11866760253906, -0.24107026, -1.332473, -1.0021048
796, 3359178579, -75.79830169677734, 78.29212951660156, 60.69023513793945, -0.55641437, -1.210952, -1.1656618
797, 3359195246, -73.85919952392578, 78.08253479003906, 62.80485534667969, -0.7376016, -0.8565056, -1.3066158
798, 3359211913, -72.61055755615234, 77.93235778808594, 64.31542205810547, -0.72225374, -0.41895515, -1.2769508
799, 3359228580, -71.95986938476562, 77.87431335449219, 65.24664306640625, -0.6075742, -0.18305689, -0.9475136
800, 3359245247, -71.79779815673828, 77.91714477539062, 65.6394271850586, -0.51663435, -0.03242681, -0.5193081
801, 3359261914, -72.00865936279297, 78.08015441894531, 65.52053833007812, -0.4358467, 0.05888006, -0.542717
802, 3359278581, -72.4346923828125, 78.34015655517578, 65.06893157958984, -0.434647, -0.1384038, -0.83502865
803, 3359295248, -72.95307922363281, 78.62940979003906, 64.54620361328125, -0.6356777, -0.67402434, -0.7638483
804, 3359311915, -73.66021728515625, 78.93213653564453, 63.98127746582031, -0.76741105, -0.9150685, -0.6032629
805, 3359328582, -74.68192291259766, 79.24647521972656, 63.2991828918457, -0.6362957, -0.7559018, -0.6023245
806, 3359345249, -76.00263214111328, 79.55042266845703, 62.463680267333984, -0.388165, -0.55057263, -0.53469086
807, 3359361916, -77.327392578125, 79.82720947265625, 61.687408447265625, -0.32996836, -0.43569884, -0.40460014
808, 3359378583, -78.4206771850586, 80.09519958496094, 61.195953369140625, -0.4657249, -0.33016282, -0.5533047
809, 3359395250, -79.5071029663086, 80.35975646972656, 60.8403205871582, -0.66384083, -0.3322661, -0.86773205
810, 3359411917, -80.88872528076172, 80.60209655761719, 60.381011962890625, -0.8257389, -0.25274923, -0.9587431
811, 3359428584, -82.6286392211914, 80.8023910522461, 59.70070266723633, -0.7079288, -0.10869755, -0.86792564
812, 3359445251, -84.4771499633789, 80.9436264038086, 58.93528366088867, -0.53106207, 0.044409677, -0.79074764
813, 3359461918, -86.18685150146484, 81.00914001464844, 58.26240921020508, -0.58394223, 0.022938576, -0.6419163
814, 3359478585, -87.77236938476562, 80.99378967285156, 57.6471061706543, -0.8525338, -0.15940106, -0.2807188
815, 3359495252, -89.41543579101562, 80.91544342041016, 56.890106201171875, -0.99454886, -0.31223932, 0.023692131
816, 3359511919, -90.99595642089844, 80.77989959716797, 56.10295867919922, -0.9543142, -0.3783415, 0.13547707
817, 3359528586, -92.43570709228516, 80.58294677734375, 55.3969841003418, -0.8940736, -0.32632545, 0.19295406
818, 3359545253, -93.65338134765625, 80.32811737060547, 54.81083297729492, -0.6985077, -0.06075272, 0.33673668
819, 3359561920, -94.55561828613281, 80.01861572265625, 54.35453796386719, -0.4499964, 0.15841827, 0.45751476
820, 3359578587, -94.97541046142578, 79.65982055664062, 54.12195587158203, -0.31042543, 0.0480402, 0.660799
821, 3359595254, -94.68696594238281, 79.24691772460938, 54.32535171508789, -0.2937704, -0.32874006, 1.016038
822, 3359611921, -93.71231842041016, 78.77503967285156, 54.996009826660156, -0.29906464, -0.8304859, 1.2740078
823, 3359628588, -92.21233367919922, 78.23697662353516, 56.083351135253906, -0.311666, -1.2183261, 1.3225126
824, 3359645255, -90.33299255371094, 77.61817932128906, 57.52804946899414, -0.20666762, -1.4548397, 1.4280262
825, 3359661922, -88.11509704589844, 76.91341400146484, 59.29650115966797, -0.003503454, -1.509348, 1.4828024
826, 3359678589, -85.57535552978516, 76.13227844238281, 61.34836196899414, 0.16640194, -1.5000784, 1.3099632
827, 3359695256, -82.82109832763672, 75.30035400390625, 63.58662414550781, 0.27494013, -1.5132401, 0.84845924
828, 3359711923, -79.94569396972656, 74.4228744506836, 65.96501159667969, 0.28797776, -1.5713972, 0.19931507
829, 3359728590, -77.13006591796875, 73.49817657470703, 68.39012145996094, 0.2225338, -1.4886256, -0.35264397
830, 3359745257, -74.58622741699219, 72.5658187866211, 70.69157409667969, 0.14667353, -1.239406, -0.5861244
831, 3359761924, -72.41070556640625, 71.67910766601562, 72.75499725341797, 0.08000822, -0.86632615, -0.6629391
832, 3359778591, -70.5868148803711, 70.8813247680664, 74.54822540283203, 0.037304085, -0.48681128, -0.6727686
833, 3359795258, -69.0816650390625, 70.1974105834961, 76.06238555908203, 0.016562589, -0.21944591, -0.6804085
834, 3359811925, -67.93701171875, 69.6474380493164, 77.23323822021484, -0.02905825, -0.013216545, -0.7736349
835, 3359828592, -67.17902374267578, 69.23160552978516, 78.03447723388672, -0.040881664, 0.06840078, -0.91555595
836, 3359845259, -66.76435852050781, 68.92413330078125, 78.51166534423828, 6.488581E-4, 0.060547203, -1.0093889
837, 3359861926, -66.6927490234375, 68.72322082519531, 78.69940948486328, 0.014159406, 0.108813256, -0.8937454
838, 3359878593, -66.94226837158203, 68.62882232666016, 78.58609771728516, 0.1510605, 0.18611947, -0.56559086
839, 3359895260, -67.36054992675781, 68.6299819946289, 78.24995422363281, 0.26432005, 0.3508085, -0.31073666
840, 3359911927, -67.78144836425781, 68.716552734375, 77.78705596923828, 0.44849822, 0.4431028, -0.15080929
841, 3359928594, -68.26851654052734, 68.8950424194336, 77.1648941040039, 0.47223738, 0.4572809, 0.012439728
842, 3359945261, -68.89159393310547, 69.1322250366211, 76.38650512695312, 0.39967397, 0.44711486, 0.1287899
843, 3359961928, -69.66983032226562, 69.39185333251953, 75.47313690185547, 0.3348857, 0.4807665, 0.11651516
844, 3359978595, -70.60181427001953, 69.66715240478516, 74.45684051513672, 0.2987257, 0.45862043, 0.058672905
845, 3359995262, -71.74173736572266, 69.95824432373047, 73.31981658935547, 0.2143349, 0.48521063, 0.018369675
846, 3360011929, -73.09590911865234, 70.2454833984375, 72.03710174560547, 0.18503146, 0.63633555, 0.10387325
847, 3360028596, -74.58637237548828, 70.52521514892578, 70.62671661376953, 0.24409367, 0.8096904, 0.21158504
848, 3360045263, -76.2009048461914, 70.8096694946289, 69.07579040527344, 0.26291034, 0.877764, 0.2962122
849, 3360061930, -77.85444641113281, 71.08969116210938, 67.44026184082031, 0.24391071, 0.8225933, 0.34462833
850, 3360078597, -79.50143432617188, 71.36216735839844, 65.7806167602539, 0.14196151, 0.8157633, 0.2261095
851, 3360095264, -81.16564178466797, 71.62733459472656, 64.10591125488281, 0.038230132, 0.81689537, 0.015396118
852, 3360111931, -82.93962860107422, 71.88964080810547, 62.3503303527832, -0.12329025, 0.91398764, -0.013683319
853, 3360128598, -84.89092254638672, 72.14292907714844, 60.453956604003906, -0.15965499, 0.9969622, 0.020069122
854, 3360145265, -86.93424224853516, 72.36585998535156, 58.4932746887207, -0.15265164, 1.0058553, -0.07134724
855, 3360161932, -88.98603820800781, 72.5496597290039, 56.558494567871094, -0.18208732, 0.99728775, -0.26813507
856, 3360178599, -90.98331451416016, 72.68205261230469, 54.71136474609375, -0.22732876, 0.95005995, -0.3475752
857, 3360195266, -92.84645080566406, 72.77980041503906, 52.9938850402832, -0.29734364, 0.99606115, -0.20413017
858, 3360211933, -94.55591583251953, 72.8590316772461, 51.38398361206055, -0.35753664, 1.0376747, 0.0875082
859, 3360228600, -96.11970520019531, 72.93437194824219, 49.833255767822266, -0.39827213, 1.0591277, 0.2585745
860, 3360245267, -97.50205993652344, 73.00415802001953, 48.359153747558594, -0.36175653, 1.1334313, 0.30288315
861, 3360261934, -98.71937561035156, 73.06282043457031, 46.975372314453125, -0.38959518, 1.1107357, 0.3075981
862, 3360278601, -99.77898406982422, 73.11248016357422, 45.717552185058594, -0.45616755, 1.0302372, 0.28649807
863, 3360295268, -100.67070007324219, 73.15592956542969, 44.62721252441406, -0.4820113, 0.93711, 0.28062344
864, 3360311935, -101.3683853149414, 73.19214630126953, 43.73609161376953, -0.38673654, 0.8647416, 0.29139233
865, 3360328602, -101.90142059326172, 73.22958374023438, 43.04106903076172, -0.35392845, 0.7556117, 0.23681831
866, 3360345269, -102.3062973022461, 73.26197052001953, 42.530452728271484, -0.27477995, 0.64845157, 0.20138168
867, 3360361936, -102.58417510986328, 73.2898941040039, 42.2342414855957, -0.28099295, 0.6857134, 0.15658855
868, 3360378603, -102.78756713867188, 73.31819152832031, 42.102943420410156, -0.31309274, 0.74608916, -0.081876755
869, 3360395270, -102.98111724853516, 73.34745025634766, 42.05734634399414, -0.24644195, 0.8507945, -0.32600784
870, 3360411937, -103.22317504882812, 73.37431335449219, 42.04290771484375, -0.1586383, 0.8835397, -0.44573784
871, 3360428604, -103.56411743164062, 73.41133117675781, 41.99755859375, -0.06779872, 0.856167, -0.41411495
872, 3360445271, -104.02448272705078, 73.46453094482422, 41.86967086791992, -0.10252017, 0.86766934, -0.38723755
873, 3360461938, -104.64234924316406, 73.5241470336914, 41.620941162109375, -0.11161798, 0.84445596, -0.3084545
874, 3360478605, -105.42112731933594, 73.57677459716797, 41.22654342651367, -0.08745772, 0.7289954, -0.10791683
875, 3360495272, -106.25033569335938, 73.61734008789062, 40.74484634399414, 0.0071391156, 0.638992, 0.009990692
876, 3360511939, -107.00193786621094, 73.65534210205078, 40.281314849853516, 0.072613604, 0.48469332, 0.040987015
877, 3360528606, -107.60003662109375, 73.6980972290039, 39.897705078125, 0.08814901, 0.27238363, -0.07804203
878, 3360545273, -108.06106567382812, 73.73126220703125, 39.6223258972168, 0.091560684, 0.084770195, -0.23329735
879, 3360561940, -108.37545013427734, 73.73104095458984, 39.49382400512695, 0.085729875, -0.006419739, -0.28661633
880, 3360578607, -108.51914978027344, 73.70915985107422, 39.53213882446289, 0.07519515, -0.074703395, -0.27364922
881, 3360595274, -108.46269226074219, 73.67242431640625, 39.75662612915039, 0.13026382, -0.098307036, -0.3358078
882, 3360611941, -108.23575592041016, 73.62223815917969, 40.134178161621094, 0.22264114, -0.09277084, -0.51391983
883, 3360628608, -107.84872436523438, 73.5631332397461, 40.6440544128418, 0.24495459, -0.09596551, -0.6489296
884, 3360645275, -107.32832336425781, 73.50401306152344, 41.25981521606445, 0.17470843, -0.16270491, -0.63213253
885, 3360661942, -106.70291900634766, 73.44550323486328, 41.92973709106445, 0.14976338, -0.29497594, -0.5823593
886, 3360678609, -106.01884460449219, 73.38855743408203, 42.596961975097656, 0.13677864, -0.4055646, -0.6267452
887, 3360695276, -105.37586212158203, 73.3303451538086, 43.20442199707031, 0.1286333, -0.49296197, -0.7584982
888, 3360711943, -104.80217742919922, 73.25703430175781, 43.75043487548828, 0.10655028, -0.52628237, -0.77529526
889, 3360728610, -104.31529235839844, 73.17135620117188, 44.21232223510742, 0.099483855, -0.6073798, -0.6243887
890, 3360745277, -103.8355712890625, 73.08904266357422, 44.652286529541016, 0.15653183, -0.6717557, -0.5693579
891, 3360761944, -103.2931900024414, 73.0213394165039, 45.1352424621582, 0.17452468, -0.72503924, -0.6178589
892, 3360778611, -102.69153594970703, 72.97064971923828, 45.680885314941406, 0.06653848, -0.80555385, -0.5948343
893, 3360795278, -102.08063507080078, 72.9263687133789, 46.276737213134766, -0.054190338, -0.8314455, -0.62548923
894, 3360811945, -101.52166748046875, 72.86970520019531, 46.855403900146484, -0.056522667, -0.8153508, -0.70165825
895, 3360828612, -100.99158477783203, 72.80305480957031, 47.41989517211914, -0.038737416, -0.79880023, -0.6280966
896, 3360845279, -100.38362884521484, 72.74394989013672, 48.02849197387695, -0.09410381, -0.74451965, -0.48172474
897, 3360861946, -99.66492462158203, 72.70059204101562, 48.69305419921875, -0.055529658, -0.73481625, -0.481431
898, 3360878613, -98.93536376953125, 72.66876220703125, 49.338356018066406, -0.082382336, -0.7504089, -0.54070854
899, 3360895280, -98.2746810913086, 72.64144134521484, 49.93714904785156, -0.10334091, -0.69934255, -0.48703957
900, 3360911947, -97.64217376708984, 72.6214599609375, 50.50924301147461, -0.04631465, -0.56721175, -0.47901535
901, 3360928614, -97.02249908447266, 72.60969543457031, 51.04454803466797, -0.02025779, -0.48433223, -0.48495483
902, 3360945281, -96.3545913696289, 72.5960922241211, 51.57617950439453, -2.9361222E-4, -0.42359248, -0.38324928
903, 3360961948, -95.70982360839844, 72.57872009277344, 52.04758071899414, 0.052886266, -0.43780813, -0.37289143
904, 3360978615, -95.12890625, 72.5548324584961, 52.44099807739258, 0.021991942, -0.4675881, -0.31308842
905, 3360995282, -94.58484649658203, 72.52571868896484, 52.80339050292969, 0.00787872, -0.42129678, -0.2050829
906, 3361011949, -94.0916748046875, 72.49394989013672, 53.105751037597656, 0.05916924, -0.3252267, -0.12306309
907, 3361028616, -93.61288452148438, 72.46397399902344, 53.363162994384766, 0.10241425, -0.29513767, -0.027385712
908, 3361045283, -93.13311004638672, 72.44554138183594, 53.59543228149414, 0.10891563, -0.31056833, -0.044456482
909, 3361061950, -92.67581939697266, 72.435302734375, 53.805538177490234, 0.06492579, -0.41640508, -0.06903553
910, 3361078617, -92.28189086914062, 72.43194580078125, 53.97959899902344, 0.046606, -0.4384676, -0.026892662
911, 3361095284, -91.98226165771484, 72.43174743652344, 54.1068000793457, 0.04926251, -0.38212827, -0.019382477
912, 3361111951, -91.78255462646484, 72.43096923828125, 54.173187255859375, -0.021453584, -0.29968885, 0.054493904
913, 3361128618, -91.61878967285156, 72.43575286865234, 54.2075309753418, -0.021841686, -0.22275548, 0.12588215
914, 3361145285, -91.49187469482422, 72.45372772216797, 54.20515823364258, -0.03029232, -0.14557801, 0.10954285
915, 3361161952, -91.40991973876953, 72.47636413574219, 54.16322708129883, -0.10432425, -0.11438052, 0.12750626
916, 3361178619, -91.35868835449219, 72.50057983398438, 54.10746765136719, -0.19301236, -0.04336964, 0.10195255
917, 3361195286, -91.37898254394531, 72.5236587524414, 54.00339126586914, -0.2193513, 0.052225366, 0.078772545
918, 3361211953, -91.449951171875, 72.53864288330078, 53.84906005859375, -0.2405787, 0.22046156, 0.14255619
919, 3361228620, -91.5029067993164, 72.55675506591797, 53.684967041015625, -0.20581117, 0.29189762, 0.14710045
920, 3361245287, -91.54215240478516, 72.58199310302734, 53.51808547973633, -0.1807437, 0.379331, 0.056189537
921, 3361261954, -91.59046173095703, 72.60628509521484, 53.328651428222656, -0.14762104, 0.4054818, 0.010344505
922, 3361278621, -91.60694885253906, 72.624755859375, 53.14707565307617, -0.1063626, 0.41397706, -0.08456421
923, 3361295288, -91.5818862915039, 72.64225769042969, 52.9904899597168, -0.0646954, 0.44206437, -0.13290787
924, 3361311955, -91.52449035644531, 72.65763092041016, 52.877716064453125, -0.08140191, 0.44711307, -0.08511543
925, 3361328622, -91.41167449951172, 72.67053985595703, 52.83774185180664, -0.1366344, 0.4667449, -0.12387371
926, 3361345289, -91.34019470214844, 72.67967224121094, 52.80975341796875, -0.13089418, 0.48797214, -0.18297863
927, 3361361956, -91.35984802246094, 72.68338775634766, 52.744571685791016, -0.06896584, 0.48151815, -0.19081116
928, 3361378623, -91.37261199951172, 72.68143463134766, 52.70573425292969, 0.03297199, 0.51917434, -0.2222948
929, 3361395290, -91.310791015625, 72.67919158935547, 52.74326705932617, 0.11833047, 0.5380612, -0.30126476
930, 3361411957, -91.16017150878906, 72.67606353759766, 52.86061477661133, 0.1014767, 0.48655352, -0.36629868
931, 3361428624, -90.89481353759766, 72.6677474975586, 53.08504867553711, 0.08251805, 0.3995493, -0.41680336
932, 3361445291, -90.58467102050781, 72.6511459350586, 53.38465118408203, 0.07931821, 0.3004973, -0.4901104
933, 3361461958, -90.28437805175781, 72.620361328125, 53.728370666503906, 0.07231589, 0.3073379, -0.47979832
934, 3361478625, -89.98403930664062, 72.57612609863281, 54.09468460083008, 0.119642854, 0.36149645, -0.4409361
935, 3361495292, -89.63539123535156, 72.52436065673828, 54.47291946411133, 0.14603856, 0.34765765, -0.46016693
936, 3361511959, -89.16927337646484, 72.46781158447266, 54.90988540649414, 0.19985299, 0.18644892, -0.4580202
937, 3361528626, -88.55902862548828, 72.3987808227539, 55.445255279541016, 0.14778799, 0.046613287, -0.41894054
938, 3361545293, -87.83623504638672, 72.30925750732422, 56.0647087097168, 0.10188821, -0.0431798, -0.40429306
939, 3361561960, -87.07018280029297, 72.20166778564453, 56.717979431152344, 0.09932678, -0.12786484, -0.382205
940, 3361578627, -86.2703628540039, 72.0735092163086, 57.38397979736328, 0.11614286, -0.19883065, -0.22069073
941, 3361595294, -85.41275787353516, 71.93525695800781, 58.05517578125, 0.112421684, -0.18988611, -0.07891369
942, 3361611961, -84.50757598876953, 71.79981994628906, 58.70182800292969, 0.12445962, -0.18122363, -0.005013466
943, 3361628628, -83.5633544921875, 71.67156982421875, 59.32258605957031, 0.09025333, -0.2679478, -0.012499809
944, 3361645295, -82.61351776123047, 71.5560302734375, 59.92041015625, 0.045254443, -0.382337, -0.06881714
945, 3361661962, -81.71674346923828, 71.46073913574219, 60.48725509643555, 0.013677149, -0.42027834, -0.16307735
946, 3361678629, -80.95292663574219, 71.38126373291016, 60.971500396728516, -0.026153866, -0.40112954, -0.19792747
947, 3361695296, -80.33553314208984, 71.32935333251953, 61.353050231933594, -0.016632669, -0.28124446, -0.23993206
948, 3361711963, -79.86685180664062, 71.31617736816406, 61.61408615112305, 0.033393394, -0.1038544, -0.33737087
949, 3361728630, -79.54141235351562, 71.35209655761719, 61.74832534790039, 0.07359715, -0.031184081, -0.4772625
950, 3361745297, -79.36153411865234, 71.43328857421875, 61.755210876464844, 0.07117736, 0.04211185, -0.56550694
951, 3361761964, -79.35497283935547, 71.55888366699219, 61.62434387207031, 0.014718188, 0.04853964, -0.6093273
952, 3361778631, -79.54158020019531, 71.72509002685547, 61.348323822021484, -4.8438052E-4, 0.10265257, -0.6331072
953, 3361795298, -79.9066162109375, 71.92845916748047, 60.92882537841797, 0.008615782, 0.1698571, -0.6114969
954, 3361811965, -80.4351806640625, 72.16068267822266, 60.380882263183594, -0.0046957, 0.16891947, -0.5898142
955, 3361828632, -81.14726257324219, 72.4134750366211, 59.69248580932617, -0.044224385, 0.15234643, -0.5391989
956, 3361845299, -82.02237701416016, 72.67757415771484, 58.87321853637695, -0.06445661, 0.24006766, -0.4397545
957, 3361861966, -83.0406723022461, 72.95455932617188, 57.9060173034668, -0.025058651, 0.31630147, -0.34825897
958, 3361878633, -84.1800308227539, 73.24666595458984, 56.795345306396484, 0.0065235603, 0.35695693, -0.2402277
959, 3361895300, -85.3970718383789, 73.54884338378906, 55.58747100830078, -0.04384771, 0.37048724, -0.124666214
960, 3361911967, -86.68647766113281, 73.84574890136719, 54.31660842895508, -0.10089112, 0.35914016, -0.09701252
961, 3361928634, -88.04999542236328, 74.12910461425781, 53.009254455566406, -0.13718241, 0.3348242, -0.09525776
962, 3361945301, -89.45916748046875, 74.38579559326172, 51.70112609863281, -0.13278045, 0.27999535, -0.061972618
963, 3361961968, -90.80422973632812, 74.60801696777344, 50.492332458496094, -0.12557371, 0.27411383, -0.039844513
964, 3361978635, -92.01324462890625, 74.79133605957031, 49.43555450439453, -0.07551402, 0.2402362, -0.015328407
965, 3361995302, -93.00470733642578, 74.9367446899414, 48.60194396972656, -0.12146739, 0.2578441, 0.02780819
966, 3362011969, -93.74718475341797, 75.04728698730469, 48.03532791137695, -0.16408214, 0.2543676, 0.05011463
967, 3362028636, -94.24890899658203, 75.1316146850586, 47.719722747802734, -0.19761932, 0.27561337, 0.10604954
968, 3362045303, -94.52117919921875, 75.19189453125, 47.624244689941406, -0.21846147, 0.3634753, 0.18221569
969, 3362061970, -94.57410430908203, 75.22931671142578, 47.719512939453125, -0.19912328, 0.3877058, 0.17757511
970, 3362078637, -94.39401245117188, 75.246826171875, 48.00016403198242, -0.23058966, 0.35983887, 0.15744495
971, 3362095304, -94.0147933959961, 75.24384307861328, 48.4522590637207, -0.23782343, 0.30011755, 0.13543606
972, 3362111971, -93.4967269897461, 75.2198486328125, 49.04534149169922, -0.28088638, 0.21922843, 0.030165672
973, 3362128638, -92.8643798828125, 75.17073822021484, 49.786407470703125, -0.28013214, 0.1172207, -0.006549835
974, 3362145305, -92.10392761230469, 75.1021499633789, 50.67496109008789, -0.24257487, 0.055487763, -0.007627487
975, 3362161972, -91.20320892333984, 75.017333984375, 51.70289611816406, -0.22311293, 0.037858624, -0.11991596
976, 3362178639, -90.2063217163086, 74.9188461303711, 52.843936920166016, -0.25752276, -0.0047699898, -0.1833849
977, 3362195306, -89.16610717773438, 74.81670379638672, 54.062156677246094, -0.29080132, -0.042818826, -0.19890785
978, 3362211973, -88.13633728027344, 74.70484161376953, 55.29924011230469, -0.3149443, -0.07460281, -0.24647331
979, 3362228640, -87.16484069824219, 74.58335876464844, 56.50511932373047, -0.32526612, -0.1344381, -0.21525192
980, 3362245307, -86.29917907714844, 74.46131896972656, 57.61259078979492, -0.2629672, -0.21344593, -0.18147087
981, 3362261974, -85.4646987915039, 74.34529876708984, 58.682403564453125, -0.18037023, -0.2670352, -0.30060196
982, 3362278641, -84.66792297363281, 74.23465728759766, 59.71622085571289, -0.12022689, -0.33111387, -0.3860922
983, 3362295308, -83.9523696899414, 74.14103698730469, 60.67802047729492, -0.095760465, -0.38788158, -0.3351078
984, 3362311975, -83.3742446899414, 74.07350158691406, 61.51322937011719, -0.026266124, -0.36909622, -0.3816328
985, 3362328642, -82.94493865966797, 74.03173828125, 62.198238372802734, 0.049436092, -0.3864577, -0.42886448
986, 3362345309, -82.63860321044922, 74.01761627197266, 62.75571823120117, 0.08254775, -0.46010545, -0.42466068
987, 3362361976, -82.4173355102539, 74.0274658203125, 63.23984146118164, 0.14161085, -0.56956947, -0.3427515
988, 3362378643, -82.3004150390625, 74.05281829833984, 63.62959289550781, 0.1341372, -0.66489595, -0.27601624
989, 3362395310, -82.34971618652344, 74.09353637695312, 63.8704719543457, 0.12550798, -0.7632355, -0.26528263
990, 3362411977, -82.5525131225586, 74.16473388671875, 63.975425720214844, 0.21716595, -0.8225902, -0.20064068
991, 3362428644, -82.83934783935547, 74.27976989746094, 64.00064849853516, 0.2863324, -0.8438113, -0.2538128
992, 3362445311, -83.32152557373047, 74.44780731201172, 63.80815505981445, 0.33655402, -0.86935765, -0.36038685
993, 3362461978, -84.09198760986328, 74.66293334960938, 63.25809860229492, 0.38623288, -0.82447505, -0.35625744
994, 3362478645, -84.98078155517578, 74.90118408203125, 62.50532150268555, 0.42569476, -0.84476846, -0.32835484
995, 3362495312, -86.09793853759766, 75.14775085449219, 61.49033737182617, 0.35349682, -0.92720586, -0.39056587
996, 3362511979, -87.55670928955078, 75.40421295166016, 60.16666030883789, 0.23395506, -0.8593271, -0.482481
997, 3362528646, -89.36480712890625, 75.66120147705078, 58.535621643066406, 0.24865676, -0.67091334, -0.44975662
998, 3362545313, -91.54732513427734, 75.92137908935547, 56.49809265136719, 0.33232188, -0.33954087, -0.3595066
999, 3362561980, -93.99202728271484, 76.18280792236328, 54.115325927734375, 0.2843843, -0.15434508, -0.10665989
1000, 3362578647, -96.49559783935547, 76.4209213256836, 51.55158233642578, 0.19128518, -0.17567153, 0.23453426
1001, 3362595314, -98.95073699951172, 76.61883544921875, 48.926231384277344, 0.17122841, -0.23062, 0.3399887
1002, 3362611981, -101.33602142333984, 76.78132629394531, 46.337669372558594, 0.07457674, -0.25874564, 0.17164707
1003, 3362628648, -103.69136047363281, 76.91284942626953, 43.82181930541992, -0.013075983, -0.25219616, 0.07910061
1004, 3362645315, -106.02064514160156, 76.99186706542969, 41.377010345458984, 0.03870535, -0.09749255, 0.20172405
1005, 3362661982, -108.07525634765625, 77.01912689208984, 39.19121170043945, 0.12586065, 0.203454, 0.29296112
1006, 3362678649, -109.71192169189453, 77.02082061767578, 37.37084197998047, 0.17718863, 0.36314663, 0.16711807
1007, 3362695316, -110.94810485839844, 77.02472686767578, 35.90121841430664, 0.124926195, 0.36895418, -0.03846073
1008, 3362711983, -111.92517852783203, 77.02827453613281, 34.702476501464844, -0.027929788, 0.412066, -0.22756672
1009, 3362728650, -112.77485656738281, 77.01054382324219, 33.67988204956055, -0.10863501, 0.49324974, -0.19512749
1010, 3362745317, -113.41566467285156, 76.96431732177734, 32.93448257446289, -0.13416755, 0.524388, -0.12965584
1011, 3362761984, -113.82056427001953, 76.88972473144531, 32.47093963623047, -0.16446078, 0.48684362, -0.1292572
1012, 3362778651, -114.05764770507812, 76.79414367675781, 32.201480865478516, -0.2753854, 0.47233674, -0.29165268
1013, 3362795318, -114.20174407958984, 76.68186950683594, 32.08858871459961, -0.39525878, 0.50523704, -0.6191721
1014, 3362811985, -114.36608123779297, 76.54708862304688, 32.02701187133789, -0.47404242, 0.6360222, -0.92963123
1015, 3362828652, -114.5451431274414, 76.39083099365234, 31.937917709350586, -0.42079505, 0.83581775, -1.1252556
1016, 3362845319, -114.65926361083984, 76.22903442382812, 31.82673454284668, -0.4308556, 0.9097317, -1.1814661
1017, 3362861986, -114.61162567138672, 76.06694030761719, 31.802104949951172, -0.5832736, 0.83097935, -1.1914787
1018, 3362878653, -114.42497253417969, 75.89250183105469, 31.886144638061523, -0.69567025, 0.7211511, -1.1223631
1019, 3362895320, -114.08194732666016, 75.70060729980469, 32.09142303466797, -0.7806668, 0.6649813, -0.7716446
1020, 3362911987, -113.54068756103516, 75.5107421875, 32.449440002441406, -0.79130334, 0.5958583, -0.41027164
1021, 3362928654, -112.82868194580078, 75.33415985107422, 32.92619323730469, -0.7998796, 0.63896465, -0.22870445
1022, 3362945321, -111.8898696899414, 75.17216491699219, 33.54862976074219, -0.78859955, 0.7824498, -0.035988808
1023, 3362961988, -110.7061767578125, 75.02291870117188, 34.285919189453125, -0.72310925, 0.72368467, 0.12772655
1024, 3362978655, -109.29470825195312, 74.89083099365234, 35.097625732421875, -0.62940294, 0.5105977, 0.28640747
1025, 3362995322, -107.61549377441406, 74.7884750366211, 36.07883071899414, -0.58962154, 0.29495215, 0.20098305
1026, 3363011989, -105.77149963378906, 74.71064758300781, 37.232479095458984, -0.56069565, 0.052908197, -0.03805065
1027, 3363028656, -103.85945129394531, 74.65341186523438, 38.54487991333008, -0.4991669, -0.18412036, -0.18453598
1028, 3363045323, -101.95447540283203, 74.6076431274414, 40.00060272216797, -0.4802225, -0.39349076, -0.15540695
1029, 3363061990, -100.11447143554688, 74.5643081665039, 41.56312942504883, -0.35406286, -0.42152712, -0.115073204
1030, 3363078657, -98.33673095703125, 74.51408386230469, 43.19992446899414, -0.1838092, -0.37901518, -0.17659855
1031, 3363095324, -96.60086822509766, 74.471435546875, 44.87954330444336, -0.07720004, -0.40218094, -0.3411379
1032, 3363111991, -94.9988784790039, 74.44428253173828, 46.50143814086914, -0.013865179, -0.4113776, -0.4142084
1033, 3363128658, -93.58709716796875, 74.4260025024414, 48.01239776611328, 0.090455025, -0.4364046, -0.32646084
1034, 3363145325, -92.30204772949219, 74.3983383178711, 49.44887161254883, 0.19735691, -0.43258587, -0.09681797
1035, 3363161992, -90.99678039550781, 74.36432647705078, 50.914066314697266, 0.33287284, -0.43999264, 0.02334404
1036, 3363178659, -89.58280181884766, 74.3302001953125, 52.48014450073242, 0.36723146, -0.4350796, -0.10700035
1037, 3363195326, -88.1605453491211, 74.29762268066406, 54.089820861816406, 0.29873538, -0.4881076, -0.27323914
1038, 3363211993, -86.96995544433594, 74.27437591552734, 55.516700744628906, 0.24068087, -0.42717862, -0.2620554
1039, 3363228660, -86.0766830444336, 74.24752044677734, 56.65055465698242, 0.31507656, -0.2576883, -0.102313995
1040, 3363245327, -85.28953552246094, 74.21145629882812, 57.625213623046875, 0.5092715, -0.19336687, -0.08742809
1041, 3363261994, -84.5781478881836, 74.18014526367188, 58.44166564941406, 0.5512882, -0.16867606, -0.3249216
1042, 3363278661, -83.9677963256836, 74.17495727539062, 59.104408264160156, 0.44594547, -0.21541892, -0.46061134
1043, 3363295328, -83.52020263671875, 74.18991088867188, 59.60543441772461, 0.3515479, -0.3673802, -0.37677193
1044, 3363311995, -83.24110412597656, 74.20207977294922, 59.93753433227539, 0.3971766, -0.30315217, -0.24366951
1045, 3363328662, -83.09282684326172, 74.21926879882812, 60.10559844970703, 0.48738056, -0.09911503, -0.31167126
1046, 3363345329, -83.03335571289062, 74.25901794433594, 60.148155212402344, 0.46246356, -0.021428857, -0.45820045
1047, 3363361996, -83.06803894042969, 74.31877899169922, 60.064117431640625, 0.28688776, -0.056795985, -0.45001507
1048, 3363378663, -83.1854248046875, 74.3892593383789, 59.894351959228516, 0.12736836, -0.14803241, -0.33209896
1049, 3363395330, -83.48562622070312, 74.4699935913086, 59.5555534362793, 0.065490276, -0.15409453, -0.32695103
1050, 3363411997, -83.95899200439453, 74.5578842163086, 59.079811096191406, 0.036524307, -0.13636503, -0.32826996
1051, 3363428664, -84.51565551757812, 74.6537094116211, 58.54452133178711, 0.03590878, -0.09920198, -0.20258999
1052, 3363445331, -85.09722900390625, 74.7513427734375, 57.98398208618164, 0.08559144, -0.07936022, -0.021026611
1053, 3363461998, -85.68085479736328, 74.849365234375, 57.38969421386719, 0.14939322, 0.008724605, 0.08534145
1054, 3363478665, -86.23969268798828, 74.95146179199219, 56.776065826416016, 0.14563242, 0.06943028, 0.11498356
1055, 3363495332, -86.70341491699219, 75.05326843261719, 56.24176025390625, 0.020567076, 0.05019654, 0.082154274
1056, 3363511999, -87.12327575683594, 75.1470718383789, 55.75695037841797, -0.073387235, 0.073101476, -0.033592224
1057, 3363528666, -87.603759765625, 75.23616027832031, 55.25992202758789, -0.14529596, 0.11144199, -0.15093994
1058, 3363545333, -88.14124298095703, 75.30657196044922, 54.75075912475586, -0.0897953, 0.1342687, -0.16759682
1059, 3363562000, -88.63699340820312, 75.35285186767578, 54.26254653930664, 0.032072823, 0.25667557, -0.13906002
1060, 3363578667, -89.0179214477539, 75.38716888427734, 53.828033447265625, 0.12768948, 0.3198001, -0.20676327
1061, 3363595334, -89.28237915039062, 75.41863250732422, 53.45549774169922, 0.073565654, 0.2894361, -0.32953548
1062, 3363612001, -89.4764175415039, 75.44371032714844, 53.13410949707031, -0.047728118, 0.19771263, -0.35155106
1063, 3363628668, -89.62567138671875, 75.45569610595703, 52.86433792114258, -0.123706214, 0.17570014, -0.30415058
1064, 3363645335, -89.7788314819336, 75.452880859375, 52.607948303222656, -0.052065387, 0.1956172, -0.2196331
1065, 3363662002, -89.91397094726562, 75.44743347167969, 52.36751174926758, -0.017920598, 0.21496023, -0.15815353
1066, 3363678669, -89.9828872680664, 75.44381713867188, 52.18703842163086, -0.02882138, 0.20086595, -0.21732903
1067, 3363695336, -90.02233123779297, 75.44005584716797, 52.04560852050781, -0.10750962, 0.14063458, -0.25257874
1068, 3363712003, -90.08462524414062, 75.4396743774414, 51.912445068359375, -0.1583425, 0.10698425, -0.15259933
1069, 3363728670, -90.19932556152344, 75.44584655761719, 51.75951385498047, -0.14403488, 0.12495849, -0.057587624
1070, 3363745337, -90.34046936035156, 75.4545669555664, 51.6004753112793, -0.1863352, 0.12780717, -0.09391594
1071, 3363762004, -90.47650909423828, 75.46196746826172, 51.48503875732422, -0.17724074, 0.07760571, -0.20431137
1072, 3363778671, -90.61897277832031, 75.4667739868164, 51.40818405151367, -0.16250281, 0.13096273, -0.2089014
1073, 3363795338, -90.76373291015625, 75.46755981445312, 51.35923767089844, -0.13691498, 0.11813828, -0.16512108
1074, 3363812005, -90.87352752685547, 75.46661376953125, 51.324825286865234, -0.12514262, 0.17195277, -0.09758568
