sep=,
DeviceTag:,Xsens_3,,,,,,,,,,,,,,,,,
FirmwareVersion:,2.2.1,,,,,,,,,,,,,,,,,
AppVersion:,2022.0.1,,,,,,,,,,,,,,,,,
SyncStatus:,Synced,,,,,,,,,,,,,,,,,
OutputRate:,60Hz,,,,,,,,,,,,,,,,,
FilterProfile:,General,,,,,,,,,,,,,,,,,
Measurement Mode:,Sensor fusion Mode - Complete (Euler),,,,,,,,,,,,,,,,,
StartTime:,2023-05-17 15:23:43.751 +0200,,,,,,,,,,,,,,,,,
© Xsens Technologies B. V. 2005-2023,,,,,,,,,,,,,,,,,,,

PacketCounter,SampleTimeFine,Euler_X,Euler_Y,Euler_Z,FreeAcc_X,FreeAcc_Y,FreeAcc_Z
1, 3345944981, -98.18437194824219, 49.583614349365234, 16.21544075012207, 2.8687415, -5.099629, 0.105994225
2, 3345961648, -101.6904525756836, 50.37483215332031, 15.116290092468262, 2.6860719, -3.916309, 0.06664276
3, 3345978315, -105.27515411376953, 51.077972412109375, 13.311150550842285, 2.7383704, -2.854078, -0.120204926
4, 3345994982, -108.640625, 51.67409896850586, 10.963537216186523, 2.4514995, -2.0167322, -0.5122881
5, 3346011649, -111.61214447021484, 52.09444046020508, 8.262983322143555, 1.5057102, -1.5160071, -0.9825926
6, 3346028316, -114.1927490234375, 52.31624984741211, 5.359702110290527, 0.18477458, -1.0439094, -1.4098635
7, 3346044983, -116.46632385253906, 52.385093688964844, 2.38903546333313, -0.87824756, -0.498009, -1.5448694
8, 3346061650, -118.3949203491211, 52.38106155395508, -0.43282952904701233, -1.3876209, -0.019592028, -1.2267847
9, 3346078317, -119.93824768066406, 52.3467903137207, -2.9057414531707764, -1.5432972, 0.18946858, -0.69253826
10, 3346094984, -121.22067260742188, 52.33217239379883, -5.075267791748047, -1.4097571, 0.2470967, -0.4915247
11, 3346111651, -122.38927459716797, 52.35741424560547, -7.095046043395996, -1.2620885, 0.17860764, -0.6045933
12, 3346128318, -123.4776611328125, 52.466590881347656, -8.980902671813965, -1.0825576, -0.055031125, -0.75431824
13, 3346144985, -124.54141235351562, 52.65093231201172, -10.645685195922852, -0.8469414, -0.27040082, -0.78662395
14, 3346161652, -125.64683532714844, 52.874446868896484, -12.118823051452637, -0.61914945, -0.345256, -0.6857281
15, 3346178319, -126.76956939697266, 53.13570785522461, -13.47054672241211, -0.3555337, -0.34075108, -0.4821272
16, 3346194986, -127.8459243774414, 53.42233657836914, -14.706123352050781, -0.30188498, -0.21843496, -0.38138294
17, 3346211653, -128.88681030273438, 53.74773406982422, -15.799760818481445, -0.39566296, -0.19669788, -0.55854416
18, 3346228320, -129.9438934326172, 54.098392486572266, -16.7568416595459, -0.29045776, -0.20303212, -0.61652946
19, 3346244987, -131.0023193359375, 54.46951675415039, -17.571809768676758, -0.06470466, -0.2687864, -0.531085
20, 3346261654, -132.01651000976562, 54.84738540649414, -18.279451370239258, 0.0768271, -0.5429646, -0.5521393
21, 3346278321, -132.93844604492188, 55.21324920654297, -18.919076919555664, -0.008542442, -0.7537883, -0.5909443
22, 3346294988, -133.79299926757812, 55.561668395996094, -19.534700393676758, -0.02928679, -0.8868657, -0.7446165
23, 3346311655, -134.5504913330078, 55.875614166259766, -20.080663681030273, -0.018970998, -0.86824924, -0.62286854
24, 3346328322, -135.16168212890625, 56.15333938598633, -20.492582321166992, 0.17964205, -0.64925396, -0.2684431
25, 3346344989, -135.6476287841797, 56.44062805175781, -20.78173828125, 0.46333778, -0.42506218, -0.15706825
26, 3346361656, -136.0448455810547, 56.74551010131836, -21.009960174560547, 0.5638523, -0.30209476, -0.2541771
27, 3346378323, -136.33958435058594, 57.03280258178711, -21.192564010620117, 0.6005119, -0.38926703, -0.44382763
28, 3346394990, -136.56455993652344, 57.31327819824219, -21.29962158203125, 0.43665257, -0.71712345, -0.6302719
29, 3346411657, -136.75689697265625, 57.594703674316406, -21.302154541015625, 0.16526482, -1.1835818, -0.9144125
30, 3346428324, -136.97207641601562, 57.840274810791016, -21.191730499267578, -0.05286171, -1.3809797, -0.9642067
31, 3346444991, -137.22633361816406, 58.084537506103516, -20.964946746826172, -0.10372666, -1.0007368, -0.6568527
32, 3346461658, -137.48194885253906, 58.38387680053711, -20.638151168823242, -0.17116623, -0.48432308, -0.25314426
33, 3346478325, -137.6950225830078, 58.73936080932617, -20.25693702697754, -0.17525204, -0.56417376, 0.021408081
34, 3346494992, -137.9584197998047, 59.084163665771484, -19.94261932373047, -0.049729876, -1.055469, 0.13730907
35, 3346511659, -138.331298828125, 59.4234733581543, -19.769113540649414, 0.044466674, -1.3574198, 0.22362423
36, 3346528326, -138.7003631591797, 59.80301284790039, -19.63921546936035, 0.05923194, -1.1409004, 0.3356371
37, 3346544993, -139.01516723632812, 60.22229766845703, -19.473608016967773, 0.3403159, -0.8467397, 0.052915573
38, 3346561660, -139.31472778320312, 60.60809326171875, -19.303125381469727, 0.7008619, -0.7015153, -0.16875076
39, 3346578327, -139.57786560058594, 60.93729019165039, -19.152236938476562, 0.83995944, -0.8599306, -0.10203743
40, 3346594994, -139.73947143554688, 61.214874267578125, -19.004199981689453, 0.90990627, -1.0378569, 0.121310234
41, 3346611661, -139.7032928466797, 61.46566390991211, -18.74027442932129, 1.0295832, -0.9626015, 0.16082478
42, 3346628328, -139.4574737548828, 61.6980094909668, -18.279619216918945, 0.9831206, -0.72388786, -0.04827118
43, 3346644995, -139.05902099609375, 61.85237121582031, -17.636919021606445, 0.67149806, -0.60857123, -0.20903301
44, 3346661662, -138.69827270507812, 61.981468200683594, -16.97419548034668, 0.35481653, -0.66144747, -0.5694666
45, 3346678329, -138.4077911376953, 62.08036804199219, -16.319456100463867, -0.031674355, -0.84393644, -0.71518517
46, 3346694996, -138.1638641357422, 62.15178680419922, -15.674985885620117, -0.14931726, -0.98688924, -0.7649212
47, 3346711663, -137.9098663330078, 62.219390869140625, -15.03364086151123, -0.0533835, -0.8503365, -0.72560596
48, 3346728330, -137.58631896972656, 62.311885833740234, -14.346165657043457, -0.07011881, -0.7222213, -0.5549202
49, 3346744997, -137.24212646484375, 62.42324447631836, -13.621980667114258, -0.2988508, -0.762122, -0.32613754
50, 3346761664, -137.0361785888672, 62.55479431152344, -13.021363258361816, -0.36276668, -0.9424989, -0.4683485
51, 3346778331, -136.9946746826172, 62.696048736572266, -12.629816055297852, -0.42599222, -0.9761421, -0.4878025
52, 3346794998, -136.95449829101562, 62.81636428833008, -12.302247047424316, -0.3000096, -1.1246461, -0.41061592
53, 3346811665, -136.83949279785156, 62.91812515258789, -11.930495262145996, -0.019151373, -1.289507, -0.3293209
54, 3346828332, -136.67588806152344, 63.019779205322266, -11.534600257873535, 0.111443445, -1.1786263, -0.26941872
55, 3346844999, -136.4788360595703, 63.14350128173828, -11.16195297241211, -0.021677852, -0.9815967, -0.25794125
56, 3346861666, -136.2660369873047, 63.30506134033203, -10.861971855163574, -0.149694, -0.8185393, -0.30702686
57, 3346878333, -136.0637969970703, 63.48674011230469, -10.62028980255127, -0.22167814, -0.7141543, -0.3765993
58, 3346895000, -135.8603057861328, 63.66781234741211, -10.388442993164062, -0.33119288, -0.58769935, -0.38227272
59, 3346911667, -135.6239776611328, 63.83616638183594, -10.129192352294922, -0.40276453, -0.52311957, -0.273633
60, 3346928334, -135.4120635986328, 64.00792694091797, -9.91032886505127, -0.31838426, -0.7050175, -0.2619772
61, 3346945001, -135.2969970703125, 64.18419647216797, -9.816276550292969, -0.10134815, -1.0003568, -0.24677372
62, 3346961668, -135.20297241210938, 64.36006164550781, -9.830530166625977, 0.09660241, -1.0300564, -0.28522873
63, 3346978335, -135.01890563964844, 64.5273666381836, -9.831718444824219, 0.30750266, -0.7116878, -0.24247551
64, 3346995002, -134.71673583984375, 64.67656707763672, -9.753472328186035, 0.4583038, -0.35026133, -0.071416855
65, 3347011669, -134.30859375, 64.803466796875, -9.593660354614258, 0.5360079, -0.20406488, -0.08237076
66, 3347028336, -133.86770629882812, 64.89421844482422, -9.427912712097168, 0.369139, -0.21218465, -0.13388538
67, 3347045003, -133.45001220703125, 64.97500610351562, -9.291879653930664, 0.11469534, -0.31531242, -0.18152142
68, 3347061670, -133.03846740722656, 65.06512451171875, -9.122123718261719, -0.18400313, -0.39477128, -0.1780119
69, 3347078337, -132.5789794921875, 65.15809631347656, -8.837444305419922, -0.32240024, -0.33201888, -0.19603157
70, 3347095004, -132.092041015625, 65.23827362060547, -8.44863510131836, -0.31237745, -0.23408757, -0.15197468
71, 3347111671, -131.62026977539062, 65.30632019042969, -8.0240478515625, -0.21511088, -0.17097579, -0.15124512
72, 3347128338, -131.1448211669922, 65.36648559570312, -7.614138603210449, -0.06395846, -0.103094906, -0.1493597
73, 3347145005, -130.61659240722656, 65.40831756591797, -7.215569972991943, -0.04417521, 0.039274134, -0.09403992
74, 3347161672, -130.03634643554688, 65.4068832397461, -6.849210262298584, -0.10262597, 0.23097427, -0.09522152
75, 3347178339, -129.41531372070312, 65.37247467041016, -6.51488733291626, -0.15528439, 0.13619651, -0.047372818
76, 3347195006, -128.72352600097656, 65.31568908691406, -6.181422710418701, -0.34039178, 0.017058508, 0.06559563
77, 3347211673, -127.98747253417969, 65.22991943359375, -5.857638835906982, -0.56840485, -0.04833177, 0.21709919
78, 3347228340, -127.22999572753906, 65.13736724853516, -5.5123162269592285, -0.7162867, -0.021720765, 0.39767838
79, 3347245007, -126.45951843261719, 65.05358123779297, -5.106013774871826, -0.8446388, 0.1156304, 0.52563
80, 3347261674, -125.70601654052734, 64.99781799316406, -4.630510330200195, -0.9211067, 0.20846897, 0.51643085
81, 3347278341, -125.04190063476562, 64.97185516357422, -4.152176856994629, -0.8457866, 0.29562157, 0.34784222
82, 3347295008, -124.4460220336914, 64.93632507324219, -3.6568403244018555, -0.7549453, 0.30069578, 0.27396965
83, 3347311675, -123.92605590820312, 64.85298156738281, -3.200618267059326, -0.61152637, 0.23684068, 0.32459164
84, 3347328342, -123.49298858642578, 64.74320983886719, -2.8782901763916016, -0.54500157, 0.12211005, 0.5584173
85, 3347345009, -123.02539825439453, 64.60200500488281, -2.6273000240325928, -0.64076483, 0.04343527, 0.8673687
86, 3347361676, -122.55522155761719, 64.41144561767578, -2.4596610069274902, -0.7439081, -0.031037232, 1.0539694
87, 3347378343, -122.19535064697266, 64.17972564697266, -2.512911319732666, -0.6503196, -0.39234638, 1.1070347
88, 3347395010, -121.78268432617188, 63.95283126831055, -2.697289228439331, -0.72503334, -0.79538536, 1.0932026
89, 3347411677, -121.17154693603516, 63.726356506347656, -2.841529130935669, -0.8993205, -0.7724541, 1.1219807
90, 3347428344, -120.41513061523438, 63.50218200683594, -2.877716541290283, -1.0200416, -0.3571013, 1.3430529
91, 3347445011, -119.46050262451172, 63.32695388793945, -2.688241481781006, -0.78729475, -0.13002889, 1.274641
92, 3347461678, -118.24674987792969, 63.21771240234375, -2.1854426860809326, -0.06640838, -0.0031772368, 0.9074898
93, 3347478345, -116.85237884521484, 63.199188232421875, -1.3226277828216553, 1.3120519, 0.56552356, 0.2995386
94, 3347495012, -115.42231750488281, 63.27106857299805, -0.17501200735569, 2.8375857, 1.1595414, -0.61246014
95, 3347511679, -114.00883483886719, 63.36405563354492, 1.0386319160461426, 3.8428555, 1.5514565, -1.4831858
96, 3347528346, -112.5839614868164, 63.4107666015625, 2.125800371170044, 3.80308, 1.910974, -1.968718
97, 3347545013, -111.21957397460938, 63.377899169921875, 3.017244338989258, 2.9871264, 2.22286, -2.2458205
98, 3347561680, -110.08077239990234, 63.30784225463867, 3.755934238433838, 1.4154773, 2.1702018, -2.6389642
99, 3347578347, -109.44842529296875, 63.25547409057617, 4.373496055603027, -0.15686584, 1.7640922, -2.9475656
100, 3347595014, -109.54366302490234, 63.26260757446289, 4.897621154785156, -0.8228017, 0.6985016, -2.8368177
101, 3347611681, -110.26690673828125, 63.34018325805664, 5.464400291442871, -0.7346106, -0.7952971, -2.4315953
102, 3347628348, -111.3765869140625, 63.50027084350586, 6.150241851806641, 0.0013896918, -1.6590625, -2.1721702
103, 3347645015, -112.55693054199219, 63.729000091552734, 6.907050609588623, 1.0562905, -1.5117755, -1.8012552
104, 3347661682, -113.49545288085938, 63.97710037231445, 7.669997692108154, 2.060327, -0.9241237, -1.1687241
105, 3347678349, -113.99793243408203, 64.19857788085938, 8.332955360412598, 2.651727, -0.45746174, -0.47423267
106, 3347695016, -113.96227264404297, 64.39948272705078, 8.794721603393555, 2.5460682, -0.14830308, 0.013177872
107, 3347711683, -113.41169738769531, 64.60808563232422, 8.97836685180664, 1.7890427, -0.056646228, 0.4764204
108, 3347728350, -112.3810806274414, 64.85661315917969, 8.9634370803833, 0.7549773, -0.053412892, 0.7549391
109, 3347745017, -111.07493591308594, 65.17327880859375, 8.83012580871582, -0.26760814, -0.1639092, 0.7743311
110, 3347761684, -109.77410125732422, 65.57339477539062, 8.618435859680176, -0.99960256, -0.32347578, 0.5981121
111, 3347778351, -108.621826171875, 66.0539779663086, 8.417123794555664, -1.3990163, -0.30579165, 0.38163567
112, 3347795018, -107.71371459960938, 66.61502838134766, 8.302756309509277, -1.5117352, -0.21835114, 0.10227394
113, 3347811685, -107.07997131347656, 67.24276733398438, 8.362651824951172, -1.3839529, -0.23841792, -0.14562607
114, 3347828352, -106.73502349853516, 67.89260864257812, 8.611865043640137, -1.0377165, -0.40814248, -0.3183136
115, 3347845019, -106.70472717285156, 68.53926086425781, 8.955805778503418, -0.424005, -0.5419209, -0.35652924
116, 3347861686, -106.85384368896484, 69.17559051513672, 9.367817878723145, 0.2517632, -0.58414465, -0.31989956
117, 3347878353, -106.9810791015625, 69.78103637695312, 9.828988075256348, 0.81040245, -0.51370203, -0.33285713
118, 3347895020, -107.00756072998047, 70.35608673095703, 10.248709678649902, 1.1584731, -0.30025792, -0.34264946
119, 3347911687, -106.89860534667969, 70.9038314819336, 10.551628112792969, 1.3693327, -0.08608288, -0.37672997
120, 3347928354, -106.63846588134766, 71.41145324707031, 10.695443153381348, 1.4455873, 0.13863301, -0.41645622
121, 3347945021, -106.2159652709961, 71.86710357666016, 10.726546287536621, 1.3442215, 0.21370253, -0.41238785
122, 3347961688, -105.67930603027344, 72.26728057861328, 10.666328430175781, 1.1958524, 0.17730053, -0.45319176
123, 3347978355, -105.10216522216797, 72.62610626220703, 10.520177841186523, 0.85542923, 0.13362432, -0.4323492
124, 3347995022, -104.56037902832031, 72.97676086425781, 10.329503059387207, 0.40363467, 0.04184118, -0.37376118
125, 3348011689, -104.1246337890625, 73.34988403320312, 10.11452865600586, 0.059286587, -0.02492393, -0.2502985
126, 3348028356, -103.81863403320312, 73.75745391845703, 9.951916694641113, -0.16248386, -0.07144994, -0.19065762
127, 3348045023, -103.65081787109375, 74.18940734863281, 9.88735580444336, -0.26736373, -0.01561685, -0.17284298
128, 3348061690, -103.6200942993164, 74.62686920166016, 9.907026290893555, -0.24792482, 0.110549286, -0.0050640106
129, 3348078357, -103.7103042602539, 75.07659149169922, 9.974849700927734, -0.07762694, 0.16825855, 0.3070593
130, 3348095024, -103.93281555175781, 75.54399108886719, 10.040834426879883, 0.14315334, 0.031711124, 0.50251484
131, 3348111691, -104.25881958007812, 76.00597381591797, 10.059555053710938, 0.06741506, -0.07053087, 0.612957
132, 3348128358, -104.49986267089844, 76.42454528808594, 10.145102500915527, -0.33144668, -0.06617146, 0.7717266
133, 3348145025, -104.53765106201172, 76.76356506347656, 10.339599609375, -1.0191656, 0.12335456, 0.7956886
134, 3348161692, -104.38384246826172, 77.0171890258789, 10.590033531188965, -1.4866322, 0.35465628, 0.54694176
135, 3348178359, -104.07369995117188, 77.17717742919922, 10.877249717712402, -1.625287, 0.4871237, 0.26858234
136, 3348195026, -103.74016571044922, 77.25757598876953, 11.118185043334961, -1.4763398, 0.4212638, 0.09543514
137, 3348211693, -103.45222473144531, 77.3012924194336, 11.24206256866455, -1.1639534, 0.14541596, -0.08525562
138, 3348228360, -103.22398376464844, 77.33394622802734, 11.196684837341309, -1.0205002, -0.12395403, -0.3500681
139, 3348245027, -103.1211166381836, 77.3478012084961, 10.938289642333984, -1.4096014, -0.15155095, -0.36727905
140, 3348261694, -103.22113800048828, 77.33741760253906, 10.484272956848145, -1.8548121, -0.18056114, -0.25128746
141, 3348278361, -103.45825958251953, 77.27970123291016, 10.06417179107666, -2.1047843, -0.2277986, -0.038167
142, 3348295028, -103.65066528320312, 77.1654052734375, 9.962763786315918, -2.1791391, -0.29319045, 0.3090639
143, 3348311695, -103.73612213134766, 77.04265594482422, 10.153914451599121, -1.950383, -0.24823214, 0.5756607
144, 3348328362, -103.71683502197266, 76.9414291381836, 10.479551315307617, -1.3526305, -0.119104914, 0.6638746
145, 3348345029, -103.55061340332031, 76.83683776855469, 10.931653022766113, -0.49052623, -0.095742665, 0.61732674
146, 3348361696, -103.3211441040039, 76.71292114257812, 11.3289213180542, 0.3239076, -0.10051087, 0.5614824
147, 3348378363, -103.08086395263672, 76.58379364013672, 11.515002250671387, 0.5659853, -0.011216551, 0.61597824
148, 3348395030, -102.79571533203125, 76.4704818725586, 11.556937217712402, 0.16384417, 0.35237765, 0.5840435
149, 3348411697, -102.52186584472656, 76.37713623046875, 11.516676902770996, -0.396417, 0.67284685, 0.39947414
150, 3348428364, -102.30228424072266, 76.29988098144531, 11.50601577758789, -0.77590287, 0.7175465, 0.14955425
151, 3348445031, -102.09140014648438, 76.23025512695312, 11.666749954223633, -0.7673694, 0.6134499, -0.060679436
152, 3348461698, -101.85200500488281, 76.13948059082031, 12.046050071716309, -0.51967144, 0.5926884, -0.2375288
153, 3348478365, -101.5862808227539, 76.0033187866211, 12.579324722290039, 0.051700782, 0.55901664, -0.4164238
154, 3348495032, -101.2867660522461, 75.82360076904297, 13.18349552154541, 0.5594766, 0.49767774, -0.4370985
155, 3348511699, -101.02373504638672, 75.60417938232422, 13.679277420043945, 0.7368333, 0.39680657, -0.34509468
156, 3348528366, -100.87248229980469, 75.34717559814453, 13.95401382446289, 0.69483316, 0.24059807, -0.17785358
157, 3348545033, -100.78942108154297, 75.07345581054688, 14.080005645751953, 0.39692035, 0.09971114, 0.005387306
158, 3348561700, -100.69132232666016, 74.80545043945312, 14.206340789794922, -0.08489045, -0.015994811, 0.029730797
159, 3348578367, -100.53246307373047, 74.55697631835938, 14.435503959655762, -0.49870402, -0.030553775, -0.15479279
160, 3348595034, -100.37516021728516, 74.31964111328125, 14.773110389709473, -0.6761209, -0.106374286, -0.32925797
161, 3348611701, -100.27274322509766, 74.09345245361328, 15.191973686218262, -0.7069612, -0.071161605, -0.44991302
162, 3348628368, -100.24530029296875, 73.8744888305664, 15.629544258117676, -0.49185133, -0.039776813, -0.46112156
163, 3348645035, -100.21077728271484, 73.65970611572266, 16.105302810668945, -0.21842133, -0.021342581, -0.47287273
164, 3348661702, -100.20478820800781, 73.44632720947266, 16.537322998046875, 0.03773354, -0.079865105, -0.45234966
165, 3348678369, -100.32805633544922, 73.2406005859375, 16.77385139465332, 0.14338881, -0.10491676, -0.29359627
166, 3348695036, -100.53314208984375, 73.05503845214844, 16.848936080932617, 0.2284441, -0.08051965, -0.18933105
167, 3348711703, -100.71388244628906, 72.8815689086914, 16.86314582824707, 0.30624595, -0.03456896, -0.16378117
168, 3348728370, -100.8552017211914, 72.70549774169922, 16.855487823486328, 0.31852072, 0.051897697, -0.12561607
169, 3348745037, -100.95377349853516, 72.53736877441406, 16.878149032592773, 0.19915183, 0.16459158, -0.050783157
170, 3348761704, -100.95927429199219, 72.3966064453125, 17.033552169799805, 0.08113733, 0.22064438, -0.057118416
171, 3348778371, -100.90284729003906, 72.25627899169922, 17.305429458618164, 0.040648624, 0.19350724, -0.10906792
172, 3348795038, -100.89933776855469, 72.09510803222656, 17.571306228637695, 0.22894119, 0.036146738, -0.055621147
173, 3348811705, -100.91999816894531, 71.92559814453125, 17.843379974365234, 0.37041685, -0.011562325, 0.02894497
174, 3348828372, -100.90564727783203, 71.79046630859375, 18.19295883178711, 0.30007944, 0.056736752, -0.07945919
175, 3348845039, -100.86262512207031, 71.6850814819336, 18.577903747558594, 0.29231405, 0.05654185, -0.27572155
176, 3348861706, -100.82874298095703, 71.5804214477539, 18.94150161743164, 0.3120994, 0.022106772, -0.39008904
177, 3348878373, -100.84837341308594, 71.4811782836914, 19.2415828704834, 0.26525992, -0.09590114, -0.4672737
178, 3348895040, -100.95330810546875, 71.3823471069336, 19.460124969482422, 0.25163892, -0.18964605, -0.5016737
179, 3348911707, -101.09082794189453, 71.27964782714844, 19.656404495239258, 0.36635092, -0.21924385, -0.5249977
180, 3348928374, -101.23875427246094, 71.18372344970703, 19.833038330078125, 0.49733686, -0.16473123, -0.5585699
181, 3348945041, -101.43958282470703, 71.09942626953125, 19.90846824645996, 0.5325553, -0.16635063, -0.55141735
182, 3348961708, -101.69843292236328, 71.02058410644531, 19.88269805908203, 0.42047694, -0.23557103, -0.43980694
183, 3348978375, -101.99998474121094, 70.95899200439453, 19.7972354888916, 0.21571492, -0.18823725, -0.33490658
184, 3348995042, -102.31961059570312, 70.92391967773438, 19.696975708007812, 0.11543651, -0.28053895, -0.33949947
185, 3349011709, -102.64039611816406, 70.89710235595703, 19.60222053527832, 0.0679761, -0.3744354, -0.34477997
186, 3349028376, -102.98018646240234, 70.862060546875, 19.498048782348633, 0.087199554, -0.32528242, -0.2479477
187, 3349045043, -103.3021011352539, 70.83100891113281, 19.42035675048828, 0.19491123, -0.1752507, -0.12194252
188, 3349061710, -103.50989532470703, 70.81195068359375, 19.43010139465332, 0.26698443, -0.025557142, -0.032621384
189, 3349078377, -103.59156036376953, 70.80440521240234, 19.53157615661621, 0.3403433, -0.02221227, -0.036608696
190, 3349095044, -103.57386779785156, 70.80349731445312, 19.691844940185547, 0.32271817, -0.116669066, -0.022398949
191, 3349111711, -103.4715347290039, 70.80973815917969, 19.908334732055664, 0.34110847, -0.24681552, -0.037303925
192, 3349128378, -103.27544403076172, 70.826171875, 20.20389747619629, 0.3275844, -0.22884999, -0.17209911
193, 3349145045, -103.02960205078125, 70.85415649414062, 20.524106979370117, 0.26534665, -0.17922208, -0.32597065
194, 3349161712, -102.75040435791016, 70.9007339477539, 20.83600425720215, 0.13965492, -0.13949868, -0.44468307
195, 3349178379, -102.46270751953125, 70.96863555908203, 21.131372451782227, 0.05669976, -0.20646808, -0.5945692
196, 3349195046, -102.21161651611328, 71.04564666748047, 21.38555145263672, 0.09355222, -0.3124709, -0.7288809
197, 3349211713, -102.00646209716797, 71.11917877197266, 21.57809066772461, 0.15729836, -0.48124015, -0.7656927
198, 3349228380, -101.8489990234375, 71.18681335449219, 21.702932357788086, 0.21131206, -0.519831, -0.71679115
199, 3349245047, -101.71479034423828, 71.25114440917969, 21.810163497924805, 0.16712143, -0.47023436, -0.61305904
200, 3349261714, -101.62590026855469, 71.32998657226562, 21.866437911987305, 0.09288148, -0.4595299, -0.63931656
201, 3349278381, -101.63624572753906, 71.42713928222656, 21.79715347290039, 0.13871191, -0.5470683, -0.65727043
202, 3349295048, -101.72236633300781, 71.5225830078125, 21.625530242919922, 0.1757222, -0.562159, -0.5921583
203, 3349311715, -101.8587646484375, 71.61104583740234, 21.40004539489746, 0.15779881, -0.52967495, -0.5087242
204, 3349328382, -102.01287841796875, 71.69081115722656, 21.16826629638672, 0.036497653, -0.4276706, -0.4010353
205, 3349345049, -102.19241333007812, 71.76714324951172, 20.94845962524414, -0.11775489, -0.2613691, -0.19411182
206, 3349361716, -102.35545349121094, 71.86109161376953, 20.751691818237305, -0.16872177, -0.116426334, -0.07635021
207, 3349378383, -102.4513168334961, 71.96791076660156, 20.601991653442383, -0.1329541, 0.039803635, -0.03819847
208, 3349395050, -102.48790740966797, 72.06348419189453, 20.505516052246094, -0.031231688, -0.015755652, -0.0749197
209, 3349411717, -102.54647827148438, 72.14045715332031, 20.3873233795166, 0.102723874, -0.22804713, -0.07816887
210, 3349428384, -102.62543487548828, 72.20384979248047, 20.24863624572754, 0.07950166, -0.34315386, -0.013302803
211, 3349445051, -102.6612777709961, 72.25729370117188, 20.16038703918457, 0.0016165575, -0.27873877, 0.08896446
212, 3349461718, -102.59452056884766, 72.31128692626953, 20.19588279724121, -0.096488774, -0.09087022, 0.06250763
213, 3349478385, -102.47268676757812, 72.37355041503906, 20.3364315032959, -0.21771704, -0.0018716975, 0.011080742
214, 3349495052, -102.3622055053711, 72.4416732788086, 20.466842651367188, -0.20936581, -0.096885264, -0.07217121
215, 3349511719, -102.25428771972656, 72.50489807128906, 20.546144485473633, -0.109029956, -0.13811067, 0.0019435883
216, 3349528386, -102.1465835571289, 72.54269409179688, 20.60590934753418, -0.0034498107, -0.10617246, 0.11191654
217, 3349545053, -101.957763671875, 72.57344055175781, 20.77482795715332, -0.04167969, 0.172761, 0.18059349
218, 3349561720, -101.66905975341797, 72.61659240722656, 21.0893497467041, -0.17413984, 0.43333507, 0.10954666
219, 3349578387, -101.32145690917969, 72.68156433105469, 21.479663848876953, -0.20837297, 0.4017719, 0.00429821
220, 3349595054, -100.96895599365234, 72.7624740600586, 21.850318908691406, -0.21254194, 0.17631708, 0.017187119
221, 3349611721, -100.57723999023438, 72.84473419189453, 22.297542572021484, -0.21021606, 0.088445865, 0.060720444
222, 3349628388, -100.07614135742188, 72.9111328125, 22.91044807434082, -0.16499223, 0.2608698, 0.09573078
223, 3349645055, -99.44029235839844, 72.96852111816406, 23.680500030517578, -0.10297868, 0.3100489, 0.06726456
224, 3349661722, -98.72926330566406, 73.04026794433594, 24.555683135986328, -0.119665705, 0.25363266, -0.113762856
225, 3349678389, -98.01250457763672, 73.13728332519531, 25.461061477661133, -0.19386753, 0.11732374, -0.2850933
226, 3349695056, -97.31564331054688, 73.24943542480469, 26.33902931213379, -0.17988133, 0.05548888, -0.39674282
227, 3349711723, -96.65003204345703, 73.35800170898438, 27.16323471069336, 0.022031449, 0.009021654, -0.37319946
228, 3349728390, -95.99190521240234, 73.45230865478516, 27.95712661743164, 0.17002061, -0.06664754, -0.36092663
229, 3349745057, -95.34321594238281, 73.54194641113281, 28.738208770751953, 0.2045641, -0.04326951, -0.37281895
230, 3349761724, -94.76607513427734, 73.6366958618164, 29.495454788208008, 0.097090565, -0.036199935, -0.42157745
231, 3349778391, -94.29117584228516, 73.73561096191406, 30.198287963867188, 0.08704019, -0.020212723, -0.51699543
232, 3349795058, -93.92037963867188, 73.82977294921875, 30.780893325805664, 0.16207181, -0.007243831, -0.5811424
233, 3349811725, -93.66461944580078, 73.9168701171875, 31.20794677734375, 0.25227717, -0.13141958, -0.5395899
234, 3349828392, -93.5841064453125, 73.99456024169922, 31.42703628540039, 0.20364265, -0.28489453, -0.4248314
235, 3349845059, -93.65409088134766, 74.07572937011719, 31.489381790161133, 0.07712102, -0.3457696, -0.23324394
236, 3349861726, -93.80518341064453, 74.15687561035156, 31.47850227355957, 0.027814511, -0.35630536, -0.06546974
237, 3349878393, -94.02336120605469, 74.23401641845703, 31.42094612121582, -0.008710188, -0.3885594, 0.022233963
238, 3349895060, -94.30316925048828, 74.30009460449219, 31.328229904174805, 0.1110609, -0.38244027, 0.07791233
239, 3349911727, -94.61768341064453, 74.35009002685547, 31.19454574584961, 0.22372305, -0.28758317, 0.08198929
240, 3349928394, -94.9509048461914, 74.39119720458984, 31.01170539855957, 0.3138361, -0.2975666, 0.03863907
241, 3349945061, -95.30951690673828, 74.41620635986328, 30.757266998291016, 0.25418833, -0.25853074, -0.012687683
242, 3349961728, -95.64175415039062, 74.42623138427734, 30.4931640625, 0.18754134, -0.14384288, -0.027387619
243, 3349978395, -95.90917205810547, 74.42962646484375, 30.256614685058594, 0.12995881, -0.08500108, -0.12733936
244, 3349995062, -96.16226196289062, 74.4327163696289, 30.003036499023438, 0.03892031, -0.09736448, -0.23084068
245, 3350011729, -96.42198181152344, 74.44388580322266, 29.712276458740234, -0.02511308, -0.13180214, -0.32710266
246, 3350028396, -96.70732879638672, 74.46064758300781, 29.384540557861328, -0.0934045, -0.17448606, -0.3902588
247, 3350045063, -97.03240966796875, 74.4784164428711, 29.015460968017578, -0.07943013, -0.17243265, -0.4083271
248, 3350061730, -97.39610290527344, 74.49613952636719, 28.624792098999023, -0.036160596, -0.19906399, -0.44124794
249, 3350078397, -97.7884750366211, 74.52156829833984, 28.223657608032227, -0.028153468, -0.13908407, -0.40187645
250, 3350095064, -98.20366668701172, 74.56499481201172, 27.797157287597656, 0.002880635, -0.0669951, -0.44376087
251, 3350111731, -98.63929748535156, 74.61052703857422, 27.362905502319336, -0.040571738, -0.047102228, -0.33206367
252, 3350128398, -99.10514831542969, 74.64774322509766, 26.933385848999023, -0.03388322, 0.02064008, -0.21473885
253, 3350145065, -99.52101135253906, 74.68399047851562, 26.55023956298828, -0.046978958, 0.049381163, -0.1421299
254, 3350161732, -99.90443420410156, 74.70940399169922, 26.161916732788086, 0.066979684, 0.016313987, -0.068014145
255, 3350178399, -100.25202178955078, 74.72476959228516, 25.770751953125, 0.039055314, 0.0051425863, 0.052643776
256, 3350195066, -100.5618667602539, 74.74362182617188, 25.42569351196289, -0.048896924, 0.0067170113, 0.16126919
257, 3350211733, -100.80440521240234, 74.77005004882812, 25.14823341369629, -0.098917335, -0.09193222, 0.13485909
258, 3350228400, -101.0127182006836, 74.79330444335938, 24.89923095703125, -0.109483466, -0.18319815, 0.106500626
259, 3350245067, -101.2383041381836, 74.80895233154297, 24.66020393371582, -0.14438535, -0.15614861, 0.1682396
260, 3350261734, -101.39523315429688, 74.83415222167969, 24.508729934692383, -0.1950915, -0.03760136, 0.14626217
261, 3350278401, -101.47132110595703, 74.86785888671875, 24.447956085205078, -0.094376594, 0.09378555, -0.069358826
262, 3350295068, -101.51757049560547, 74.90098571777344, 24.40584373474121, 0.033106964, 0.097544186, -0.2583561
263, 3350311735, -101.59210205078125, 74.93195343017578, 24.294174194335938, 0.083317585, 0.08437972, -0.3463478
264, 3350328402, -101.65670013427734, 74.963134765625, 24.16837501525879, 0.06932735, 0.11551708, -0.3389578
265, 3350345069, -101.7142562866211, 74.99275970458984, 24.051128387451172, 0.11033404, 0.04735323, -0.2959118
266, 3350361736, -101.7784194946289, 75.01703643798828, 23.928565979003906, 0.09534359, -0.031571206, -0.26344872
267, 3350378403, -101.89696502685547, 75.04058074951172, 23.773731231689453, -0.0030487168, -0.1098859, -0.2707615
268, 3350395070, -102.02595520019531, 75.06670379638672, 23.638240814208984, -0.06227328, -0.12899938, -0.19712067
269, 3350411737, -102.17803192138672, 75.09883117675781, 23.48307991027832, -0.13687152, -0.14125796, -0.18096924
270, 3350428404, -102.35105895996094, 75.12674713134766, 23.32042694091797, -0.13682714, -0.1255508, -0.2082243
271, 3350445071, -102.5616683959961, 75.14766693115234, 23.143733978271484, -0.080658, -0.13183755, -0.13789177
272, 3350461738, -102.75768280029297, 75.1688232421875, 22.983074188232422, -0.026591783, -0.11971309, -0.13082695
273, 3350478405, -102.93418884277344, 75.18695068359375, 22.82097053527832, -0.024054911, -0.082695544, -0.11827564
274, 3350495072, -103.10523223876953, 75.19715881347656, 22.650798797607422, -0.022207689, -0.06954852, -0.08820057
275, 3350511739, -103.22938537597656, 75.204345703125, 22.518850326538086, -0.066444255, -0.13113594, -0.082265854
276, 3350528406, -103.3128890991211, 75.20748901367188, 22.41249656677246, -0.101804115, -0.08927756, -0.12878418
277, 3350545073, -103.36660766601562, 75.20792388916016, 22.334558486938477, -0.12154486, -0.1437368, -0.14260578
278, 3350561740, -103.4021224975586, 75.21173858642578, 22.28003692626953, -0.1332411, -0.19093728, -0.13486958
279, 3350578407, -103.41603088378906, 75.21378326416016, 22.25175666809082, -0.13147043, -0.2153963, -0.15636349
280, 3350595074, -103.41594696044922, 75.21406555175781, 22.2556209564209, -0.15112159, -0.15123177, -0.21463299
281, 3350611741, -103.41776275634766, 75.21256256103516, 22.276119232177734, -0.13969627, -0.12760288, -0.2222271
282, 3350628408, -103.42945861816406, 75.2109146118164, 22.272502899169922, -0.082085356, -0.05928167, -0.1998043
283, 3350645075, -103.43376159667969, 75.20945739746094, 22.25132942199707, 0.04041751, -0.077726185, -0.18725586
284, 3350661742, -103.43559265136719, 75.20135498046875, 22.227468490600586, 0.04019523, -0.13974231, -0.13487625
285, 3350678409, -103.4449691772461, 75.18547821044922, 22.20244598388672, 0.036740277, -0.20577832, -0.116539
286, 3350695076, -103.41271209716797, 75.17244720458984, 22.216306686401367, -0.048881613, -0.15321836, -0.06993294
287, 3350711743, -103.31108093261719, 75.16527557373047, 22.321359634399414, -0.13556676, -0.1474115, -0.069270134
288, 3350728410, -103.18819427490234, 75.1612777709961, 22.462446212768555, -0.17199735, -0.17225093, -0.062428474
289, 3350745077, -103.03817749023438, 75.15497589111328, 22.625545501708984, -0.12153595, -0.21282904, -0.058496475
290, 3350761744, -102.80067443847656, 75.14865112304688, 22.842031478881836, -0.027978793, -0.21985404, -0.06890869
291, 3350778411, -102.46943664550781, 75.14412689208984, 23.12461280822754, -0.0038226303, -0.22848746, -0.09567928
292, 3350795078, -102.0453872680664, 75.14506530761719, 23.460508346557617, 0.017018612, -0.22446981, -0.11286163
293, 3350811745, -101.48028564453125, 75.14501953125, 23.89653778076172, 0.046177555, -0.15458447, -0.10673523
294, 3350828412, -100.76312255859375, 75.12275695800781, 24.457862854003906, -0.03690391, -0.09855503, 0.11659241
295, 3350845079, -99.93186950683594, 75.07318878173828, 25.114181518554688, -0.15153843, -0.16207796, 0.3742218
296, 3350861746, -98.97993469238281, 75.00271606445312, 25.87851905822754, -0.22638085, -0.29361624, 0.4834795
297, 3350878413, -97.95064544677734, 74.9104995727539, 26.68147850036621, -0.25433674, -0.39175028, 0.432621
298, 3350895080, -96.91029357910156, 74.81037139892578, 27.45001983642578, -0.05763315, -0.53849816, 0.10115814
299, 3350911747, -95.86787414550781, 74.71566772460938, 28.157962799072266, 0.38688305, -0.59345686, -0.279212
300, 3350928414, -94.83911895751953, 74.61253356933594, 28.73628044128418, 0.8400652, -0.42971796, -0.4790783
301, 3350945081, -94.0560302734375, 74.48812103271484, 28.917381286621094, 1.4006246, -0.3349907, -0.5634346
302, 3350961748, -93.47381591796875, 74.34622955322266, 28.72553825378418, 1.6282873, -0.50904983, -0.36777496
303, 3350978415, -92.7973861694336, 74.17406463623047, 28.416461944580078, 1.2676561, -0.91075385, -0.15481758
304, 3350995082, -92.12725830078125, 73.96209716796875, 27.93063735961914, 0.79979473, -1.1430086, -0.19801426
305, 3351011749, -91.64950561523438, 73.70655059814453, 27.191179275512695, 0.4178966, -0.94911873, -0.23526001
306, 3351028416, -91.50719451904297, 73.4074935913086, 26.205299377441406, 0.24199513, -0.7344513, -0.25278187
307, 3351045083, -91.54016876220703, 73.08690643310547, 25.20085334777832, -0.055471446, -0.8127367, -0.28311253
308, 3351061750, -91.62460327148438, 72.78228759765625, 24.246625900268555, -0.53136843, -0.799302, -0.3734827
309, 3351078417, -91.89338684082031, 72.48717498779297, 23.217885971069336, -0.7812456, -0.65540504, -0.4418726
310, 3351095084, -92.27729797363281, 72.17655181884766, 22.231142044067383, -0.80158234, -0.36065406, -0.3084631
311, 3351111751, -92.79499053955078, 71.84221649169922, 21.28846549987793, -0.65834033, -0.14312562, -0.29160213
312, 3351128418, -93.35435485839844, 71.51276397705078, 20.434497833251953, -0.5067889, -0.2252007, -0.28195858
313, 3351145085, -93.86355590820312, 71.2081527709961, 19.684797286987305, -0.4005579, -0.3796124, -0.27452755
314, 3351161752, -94.26117706298828, 70.93677520751953, 19.043928146362305, -0.2300914, -0.42856932, -0.19543552
315, 3351178419, -94.51400756835938, 70.69212341308594, 18.48749351501465, -0.1831264, -0.3556033, -0.12385464
316, 3351195086, -94.57872009277344, 70.45234680175781, 18.026418685913086, -0.17676266, -0.27728772, -0.037101746
317, 3351211753, -94.49124908447266, 70.19731140136719, 17.64572525024414, -0.19081703, -0.19553472, -0.035450935
318, 3351228420, -94.32227325439453, 69.9454116821289, 17.303529739379883, -0.14837997, -0.12586975, -0.16154385
319, 3351245087, -94.06648254394531, 69.7111587524414, 17.01488494873047, -0.24922052, -0.08213252, -0.22418022
320, 3351261754, -93.72697448730469, 69.48505401611328, 16.818317413330078, -0.44804916, -0.04392052, -0.19360828
321, 3351278421, -93.330810546875, 69.27550506591797, 16.73944091796875, -0.6087172, 0.034050412, -0.1669836
322, 3351295088, -92.85383605957031, 69.09684753417969, 16.817398071289062, -0.7847707, 0.07389584, -0.12890625
323, 3351311755, -92.27117919921875, 68.95683288574219, 17.066591262817383, -0.78014356, 0.004602132, -0.19003773
324, 3351328422, -91.63056182861328, 68.84568786621094, 17.43185806274414, -0.6314304, -0.015002636, -0.23599148
325, 3351345089, -90.99343872070312, 68.73992919921875, 17.83026123046875, -0.44108003, -0.053256433, -0.3706646
326, 3351361756, -90.41448974609375, 68.64433288574219, 18.190568923950195, -0.2181854, -0.13621157, -0.6026964
327, 3351378423, -89.86605834960938, 68.56510162353516, 18.504009246826172, -0.05119408, -0.26158056, -0.6097517
328, 3351395090, -89.28851318359375, 68.4991683959961, 18.777870178222656, 0.118903525, -0.27877006, -0.5278835
329, 3351411757, -88.67403411865234, 68.4544906616211, 18.977920532226562, 0.40896747, -0.24484079, -0.5195885
330, 3351428424, -88.02078247070312, 68.42340087890625, 19.068618774414062, 0.694482, -0.21242447, -0.52230835
331, 3351445091, -87.35318756103516, 68.39878845214844, 19.021072387695312, 0.83901155, -0.2040689, -0.54633045
332, 3351461758, -86.76889038085938, 68.38397216796875, 18.76816749572754, 0.7855908, -0.08789848, -0.52320194
333, 3351478425, -86.26988220214844, 68.37785339355469, 18.37103271484375, 0.5019871, 0.086081766, -0.52333355
334, 3351495092, -85.86573791503906, 68.37142181396484, 17.896717071533203, 0.2339604, 0.16679186, -0.5494509
335, 3351511759, -85.57646942138672, 68.3585205078125, 17.391416549682617, 0.034724303, 0.21908851, -0.5768795
336, 3351528426, -85.46406555175781, 68.3346939086914, 16.849496841430664, -0.069717266, 0.41904768, -0.568367
337, 3351545093, -85.51434326171875, 68.29451751708984, 16.30521011352539, -0.09694517, 0.51965666, -0.49115753
338, 3351561760, -85.70384216308594, 68.23778533935547, 15.77771282196045, -0.09909089, 0.5579592, -0.3406248
339, 3351578427, -85.99642181396484, 68.1679916381836, 15.280487060546875, -0.08796263, 0.5856893, -0.14432621
340, 3351595094, -86.35108184814453, 68.0914306640625, 14.840028762817383, -0.09106141, 0.5201388, -0.031712532
341, 3351611761, -86.73123931884766, 68.02041625976562, 14.494839668273926, -0.14717323, 0.42439076, -0.046470642
342, 3351628428, -87.12960815429688, 67.97014617919922, 14.222016334533691, -0.25590652, 0.28903386, -0.12192631
343, 3351645095, -87.59230041503906, 67.94037628173828, 13.922040939331055, -0.3409489, 0.15724874, -0.1012373
344, 3351661762, -88.0634536743164, 67.93370056152344, 13.59719467163086, -0.35650563, 0.067136586, -0.017560959
345, 3351678429, -88.50715637207031, 67.95471954345703, 13.247681617736816, -0.19295493, 0.067706324, 0.06908417
346, 3351695096, -88.89949035644531, 68.00199127197266, 12.846121788024902, 0.16589266, 0.055651374, 0.07055092
347, 3351711763, -89.2267074584961, 68.0754623413086, 12.326053619384766, 0.57344955, 0.037975967, 0.060778618
348, 3351728430, -89.47357177734375, 68.1595458984375, 11.658623695373535, 0.7904996, 0.058979705, 0.06383324
349, 3351745097, -89.67529296875, 68.24510955810547, 10.832412719726562, 0.774258, 0.054499164, 0.06408024
350, 3351761764, -89.90558624267578, 68.30661010742188, 9.8405122756958, 0.4815077, 0.1728848, 0.1642847
351, 3351778431, -90.21202850341797, 68.33821868896484, 8.754117012023926, 0.18219748, 0.2618812, 0.17147827
352, 3351795098, -90.6758804321289, 68.37710571289062, 7.612334728240967, -0.036468152, 0.27995557, -0.063586235
353, 3351811765, -91.34585571289062, 68.41893005371094, 6.392473220825195, -0.19058838, 0.26864985, -0.24041653
354, 3351828432, -92.18408203125, 68.4493408203125, 5.107744216918945, -0.35504004, 0.24161035, -0.28305244
355, 3351845099, -93.22383117675781, 68.47539520263672, 3.7541611194610596, -0.5298904, 0.19599381, -0.21025944
356, 3351861766, -94.48342895507812, 68.49796295166016, 2.366034984588623, -0.5850872, 0.061913535, -0.09938431
357, 3351878433, -95.95295715332031, 68.53727722167969, 0.9717833399772644, -0.4456857, -0.04928103, -0.2127533
358, 3351895100, -97.6395492553711, 68.59766387939453, -0.54926598072052, -0.3062722, -0.087505326, -0.27957535
359, 3351911767, -99.46809387207031, 68.66938018798828, -2.223675012588501, -0.14491263, -0.16068365, -0.2500496
360, 3351928434, -101.3818359375, 68.73670196533203, -4.028814792633057, -0.06411089, -0.1465798, -0.22617531
361, 3351945101, -103.35871887207031, 68.80702209472656, -5.9394917488098145, 0.029443808, -0.105822876, -0.21271229
362, 3351961768, -105.37577819824219, 68.86962127685547, -7.961850166320801, -0.006004005, 0.08841569, -0.036993027
363, 3351978435, -107.3381118774414, 68.90217590332031, -9.966178894042969, -0.075429365, 0.20489432, 0.15586281
364, 3351995102, -109.24553680419922, 68.9124984741211, -11.895570755004883, -0.15196936, 0.28589877, 0.035980225
365, 3352011769, -111.15550231933594, 68.93960571289062, -13.77755069732666, -0.2591029, 0.44099957, -0.1182127
366, 3352028436, -113.00653076171875, 69.01936340332031, -15.57857608795166, -0.34336329, 0.73699665, -0.18301582
367, 3352045103, -114.7975845336914, 69.14866638183594, -17.178726196289062, -0.6515472, 1.127027, -0.24274158
368, 3352061770, -116.599853515625, 69.29811096191406, -18.57748031616211, -0.7704031, 1.2736821, -0.32341766
369, 3352078437, -118.45864868164062, 69.46627807617188, -19.878828048706055, -0.4265747, 1.1487744, -0.45487309
370, 3352095104, -120.29024505615234, 69.63447570800781, -21.124265670776367, -0.0035829127, 0.9307935, -0.30832386
371, 3352111771, -121.9446792602539, 69.81179809570312, -22.22002601623535, 0.29255745, 0.76858616, -0.13119316
372, 3352128438, -123.3954849243164, 69.99614715576172, -23.166200637817383, 0.35834536, 0.61878556, 0.043771744
373, 3352145105, -124.63177490234375, 70.19050598144531, -23.97693634033203, 0.48424396, 0.33541003, 0.031794548
374, 3352161772, -125.73196411132812, 70.36845397949219, -24.713415145874023, 0.53661305, -0.08208111, 0.10244942
375, 3352178439, -126.62471771240234, 70.49967956542969, -25.35447883605957, 0.6937446, -0.42243245, 0.15075302
376, 3352195106, -127.2863540649414, 70.60079193115234, -25.85569953918457, 0.7428826, -0.62555397, 0.18658543
377, 3352211773, -127.85198974609375, 70.66888427734375, -26.305709838867188, 0.5875011, -0.62921, 0.1875906
378, 3352228440, -128.29171752929688, 70.71601104736328, -26.67662239074707, 0.4458576, -0.3688706, 0.13812351
379, 3352245107, -128.6746826171875, 70.7464599609375, -26.98862648010254, 0.2915606, -0.0840554, -0.024585724
380, 3352261774, -128.97003173828125, 70.73688507080078, -27.21971893310547, 0.18572205, 0.13607179, -0.09251118
381, 3352278441, -129.14239501953125, 70.7061996459961, -27.348648071289062, 0.28342247, 0.28271684, -0.12260437
382, 3352295108, -129.23760986328125, 70.6825180053711, -27.394275665283203, 0.30559316, 0.43052977, -0.14855576
383, 3352311775, -129.1949005126953, 70.6710205078125, -27.303638458251953, 0.13041846, 0.5714084, -0.25711155
384, 3352328442, -129.03587341308594, 70.66522216796875, -27.056299209594727, -0.0065057916, 0.4878349, -0.35187054
385, 3352345109, -128.83847045898438, 70.6621322631836, -26.732072830200195, -0.036823537, 0.21473895, -0.4097309
386, 3352361776, -128.604736328125, 70.67003631591797, -26.333498001098633, -0.012528571, 0.040956963, -0.38321877
387, 3352378443, -128.38829040527344, 70.68099975585938, -25.935049057006836, 0.12050433, -0.129568, -0.465024
388, 3352395110, -128.18626403808594, 70.69218444824219, -25.591041564941406, 0.35612273, -0.2106223, -0.489933
389, 3352411777, -128.00054931640625, 70.72127532958984, -25.29108238220215, 0.3075802, -0.12953782, -0.38789463
390, 3352428444, -127.76580810546875, 70.75304412841797, -24.99374771118164, 0.22716561, -0.023887277, -0.3028202
391, 3352445111, -127.49842071533203, 70.77926635742188, -24.71809196472168, 0.1941516, -0.11044498, -0.40425873
392, 3352461778, -127.30472564697266, 70.78292083740234, -24.56084442138672, 0.18460919, -0.2764216, -0.43347836
393, 3352478445, -127.2432861328125, 70.75328826904297, -24.56569480895996, 0.13427049, -0.32578242, -0.25947094
394, 3352495112, -127.31636810302734, 70.7047348022461, -24.705371856689453, 0.06443677, -0.10507947, -0.09402943
395, 3352511779, -127.39344024658203, 70.65235137939453, -24.8154296875, -0.032988723, 0.1735891, 0.024413109
396, 3352528446, -127.45604705810547, 70.63130187988281, -24.85777473449707, -0.33980653, 0.34586015, 0.10178661
397, 3352545113, -127.62681579589844, 70.64442443847656, -24.883380889892578, -0.5075729, 0.38914075, 0.056928635
398, 3352561780, -127.87339782714844, 70.67533874511719, -24.89127540588379, -0.43872643, 0.3829331, -0.011347771
399, 3352578447, -128.14541625976562, 70.73182678222656, -24.867746353149414, -0.19404322, 0.08737747, -0.08772087
400, 3352595114, -128.384521484375, 70.78816223144531, -24.838550567626953, 0.00844879, -0.19465877, -0.15176773
401, 3352611781, -128.58795166015625, 70.83729553222656, -24.814348220825195, 0.16678426, -0.29445216, -0.19156265
402, 3352628448, -128.7469482421875, 70.88666534423828, -24.80356216430664, 0.23023936, -0.32438436, -0.20794773
403, 3352645115, -128.89593505859375, 70.937255859375, -24.804197311401367, 0.14962137, -0.30299953, -0.21632767
404, 3352661782, -129.0443878173828, 70.96646881103516, -24.831790924072266, 0.10581997, -0.33557007, -0.30640697
405, 3352678449, -129.18682861328125, 70.96852111816406, -24.880992889404297, 0.094305255, -0.37603396, -0.2766981
406, 3352695116, -129.32553100585938, 70.95447540283203, -24.946149826049805, 0.12200231, -0.3580054, -0.2632246
407, 3352711783, -129.473876953125, 70.93737030029297, -25.00160026550293, 0.046253454, -0.19427407, -0.24857712
408, 3352728450, -129.64263916015625, 70.91204071044922, -25.061725616455078, -0.044108048, -0.09293736, -0.3048668
409, 3352745117, -129.81536865234375, 70.88534545898438, -25.11551856994629, -0.10203948, -0.07610817, -0.31432343
410, 3352761784, -129.9547119140625, 70.864990234375, -25.109275817871094, -0.16765751, -0.027110556, -0.28854275
411, 3352778451, -130.07740783691406, 70.85690307617188, -25.055194854736328, -0.10362865, 0.11310203, -0.27335644
412, 3352795118, -130.1946563720703, 70.85917663574219, -24.986867904663086, -0.05681722, 0.022907618, -0.33482075
413, 3352811785, -130.2769775390625, 70.87325286865234, -24.8817138671875, -0.11792521, -0.12494642, -0.29815674
414, 3352828452, -130.32298278808594, 70.9051284790039, -24.730148315429688, -0.16664568, -0.23613384, -0.24680042
415, 3352845119, -130.33914184570312, 70.95146942138672, -24.545114517211914, -0.17024758, -0.16536114, -0.20777798
416, 3352861786, -130.3529510498047, 71.00560760498047, -24.347042083740234, -0.1770017, -0.19027077, -0.18181038
417, 3352878453, -130.33872985839844, 71.07295989990234, -24.14525604248047, -0.15670605, -0.3448103, -0.118341446
418, 3352895120, -130.3193817138672, 71.15108489990234, -23.962574005126953, -0.12666076, -0.34106177, -0.12473297
419, 3352911787, -130.2664794921875, 71.2381591796875, -23.786649703979492, -0.04283134, -0.27056602, -0.08504677
420, 3352928454, -130.1913299560547, 71.3388442993164, -23.612953186035156, 0.013266612, -0.20037244, -0.09449768
421, 3352945121, -130.11947631835938, 71.45531463623047, -23.472688674926758, -0.012571487, -0.12850878, -0.18525124
422, 3352961788, -130.07374572753906, 71.574951171875, -23.367610931396484, -0.112150975, -0.12970814, -0.24804115
423, 3352978455, -129.99208068847656, 71.70115661621094, -23.247758865356445, -0.027262323, -0.19892697, -0.18593788
424, 3352995122, -129.7852783203125, 71.83614349365234, -23.03893280029297, 0.03549821, -0.267478, -0.11894703
425, 3353011789, -129.43426513671875, 71.9747543334961, -22.738309860229492, 0.1685728, -0.53318477, -2.0313263E-4
426, 3353028456, -128.92652893066406, 72.13513946533203, -22.34741973876953, 0.23634617, -0.7178087, 0.04325962
427, 3353045123, -128.3099365234375, 72.30712890625, -21.945295333862305, 0.39316264, -0.7035855, -0.048160553
428, 3353061790, -127.64166259765625, 72.45512390136719, -21.64282989501953, 0.47479784, -0.6517582, -0.094602585
429, 3353078457, -126.9256362915039, 72.5684585571289, -21.439868927001953, 0.46432716, -0.50642204, -0.11656284
430, 3353095124, -126.1998519897461, 72.65934753417969, -21.3182373046875, 0.33040178, -0.26164493, -0.2417984
431, 3353111791, -125.51561737060547, 72.73591613769531, -21.235557556152344, 0.10018164, 0.063025735, -0.36982822
432, 3353128458, -124.96394348144531, 72.7998275756836, -21.185894012451172, -0.1695129, 0.38342172, -0.44095325
433, 3353145125, -124.5884017944336, 72.8399658203125, -21.15035629272461, -0.28646493, 0.67578316, -0.51487255
434, 3353161792, -124.4537124633789, 72.85447692871094, -21.184505462646484, -0.24928467, 0.84191185, -0.5448837
435, 3353178459, -124.57192993164062, 72.84083557128906, -21.31960678100586, -0.21028724, 0.8266421, -0.5164652
436, 3353195126, -124.86376953125, 72.80889892578125, -21.485628128051758, -0.11671198, 0.79528254, -0.4057083
437, 3353211793, -125.25048065185547, 72.77740478515625, -21.61948585510254, -0.11266841, 0.78584963, -0.26078987
438, 3353228460, -125.70826721191406, 72.76155090332031, -21.691715240478516, -0.1694939, 0.5419208, -0.1467104
439, 3353245127, -126.1772689819336, 72.76515197753906, -21.70211410522461, -0.15255922, 0.20487668, -0.050525665
440, 3353261794, -126.61005401611328, 72.78759765625, -21.661945343017578, 0.02476956, -0.11939502, -0.048383713
441, 3353278461, -126.98368072509766, 72.82408905029297, -21.62169075012207, 0.24423082, -0.37482652, -0.13688278
442, 3353295128, -127.29186248779297, 72.85282135009766, -21.63447380065918, 0.42308947, -0.57110083, -0.17229748
443, 3353311795, -127.52996063232422, 72.86483001708984, -21.728899002075195, 0.5025199, -0.6271928, -0.14968204
444, 3353328462, -127.6894760131836, 72.85760498046875, -21.8787784576416, 0.401265, -0.49356198, -0.11079693
445, 3353345129, -127.77759552001953, 72.83522033691406, -22.039627075195312, 0.21349823, -0.3645036, -0.101958275
446, 3353361796, -127.86451721191406, 72.79459381103516, -22.224729537963867, 0.033900432, -0.1624121, -0.13622284
447, 3353378463, -127.9415054321289, 72.7395248413086, -22.386993408203125, -0.061852295, 0.004419075, -0.0867157
448, 3353395130, -128.0035858154297, 72.68502807617188, -22.473609924316406, -0.15899259, 0.1305338, -0.08483219
449, 3353411797, -128.08518981933594, 72.64506530761719, -22.48377799987793, -0.28467348, 0.15093338, -0.10759926
450, 3353428464, -128.1873321533203, 72.61824035644531, -22.427818298339844, -0.33518517, 0.054873325, -0.13947392
451, 3353445131, -128.3249969482422, 72.59185028076172, -22.3698673248291, -0.24320199, -0.09140249, -0.21119213
452, 3353461798, -128.47503662109375, 72.56243133544922, -22.329181671142578, -0.06871079, -0.1548786, -0.22976875
453, 3353478465, -128.6123504638672, 72.53243255615234, -22.31957244873047, 0.10947933, -0.20220077, -0.25577545
454, 3353495132, -128.7127227783203, 72.50691986083984, -22.337400436401367, 0.13882345, -0.23632672, -0.22650814
455, 3353511799, -128.74942016601562, 72.4913558959961, -22.374914169311523, 0.09272413, -0.19054145, -0.13548565
456, 3353528466, -128.73316955566406, 72.4852066040039, -22.42479133605957, 0.075686775, -0.085266195, -0.15760517
457, 3353545133, -128.6842041015625, 72.47919464111328, -22.50318145751953, 0.06112364, -0.055167243, -0.19032478
458, 3353561800, -128.64529418945312, 72.4715576171875, -22.617029190063477, 0.012946317, -0.015215645, -0.19199085
459, 3353578467, -128.62484741210938, 72.46500396728516, -22.74118423461914, -0.079538204, 0.03638858, -0.0991106
460, 3353595134, -128.63735961914062, 72.46334838867188, -22.849441528320312, -0.18957005, 0.0812445, -0.06553173
461, 3353611801, -128.7054901123047, 72.46311950683594, -22.967985153198242, -0.14101991, 0.08150244, -0.1120224
462, 3353628468, -128.8011932373047, 72.45850372314453, -23.07048988342285, -0.022945616, 0.039827105, -0.11816788
463, 3353645135, -128.87156677246094, 72.45349884033203, -23.119190216064453, 0.05327208, 0.029487394, -0.0963192
464, 3353661802, -128.93959045410156, 72.44621276855469, -23.14970588684082, 0.08454288, 0.062908165, -0.12231159
465, 3353678469, -129.01339721679688, 72.4402847290039, -23.171871185302734, 0.13070926, -4.038879E-4, -0.15814781
466, 3353695136, -129.05003356933594, 72.43670654296875, -23.17525863647461, 0.09623909, -0.0010098316, -0.15502262
467, 3353711803, -129.04673767089844, 72.43045806884766, -23.167396545410156, 0.11721355, -0.02711838, -0.17442226
468, 3353728470, -128.993896484375, 72.42384338378906, -23.154884338378906, 0.15889424, -0.045430798, -0.20426369
469, 3353745137, -128.918701171875, 72.41415405273438, -23.15471649169922, 0.13284671, -0.067675926, -0.25451088
470, 3353761804, -128.8324737548828, 72.3976821899414, -23.161537170410156, 0.105800085, -0.01202835, -0.2641859
471, 3353778471, -128.75498962402344, 72.38047790527344, -23.156774520874023, 0.01530952, 0.07212182, -0.21684647
472, 3353795138, -128.70199584960938, 72.37161254882812, -23.12874412536621, -0.11626312, 0.08513522, -0.16802883
473, 3353811805, -128.6645050048828, 72.36808013916016, -23.07189178466797, -0.11921287, 0.06277719, -0.17280388
474, 3353828472, -128.6507110595703, 72.36348724365234, -23.003740310668945, -0.06204809, -0.01812556, -0.19139004
475, 3353845139, -128.64984130859375, 72.35575866699219, -22.93858528137207, 0.06514553, -0.1286934, -0.1888361
476, 3353861806, -128.670654296875, 72.34276580810547, -22.921524047851562, 0.16408622, -0.11680787, -0.2281208
477, 3353878473, -128.6950225830078, 72.32793426513672, -22.938400268554688, 0.12593144, -0.09527642, -0.2670908
478, 3353895140, -128.73583984375, 72.30651092529297, -22.98659896850586, 0.019982059, -0.113813244, -0.31079578
479, 3353911807, -128.80633544921875, 72.27936553955078, -23.07643699645996, -0.03785393, -0.043509033, -0.26982117
480, 3353928474, -128.93328857421875, 72.24760437011719, -23.212995529174805, -0.03568161, 0.024054911, -0.19731712
481, 3353945141, -129.07720947265625, 72.21931457519531, -23.34267807006836, -0.020409862, 0.0027751368, -0.13334942
482, 3353961808, -129.22671508789062, 72.20620727539062, -23.451784133911133, -0.064952195, -0.010448784, -0.101753235
483, 3353978475, -129.37820434570312, 72.19822692871094, -23.54375648498535, -0.036002126, -0.028731473, -0.14971256
484, 3353995142, -129.54226684570312, 72.18485260009766, -23.647750854492188, 0.022526307, -0.04235593, -0.16237068
485, 3354011809, -129.70477294921875, 72.17003631591797, -23.76152801513672, 0.10271851, -0.040759377, -0.16693974
486, 3354028476, -129.83157348632812, 72.1565933227539, -23.86659812927246, 0.09914051, -0.07689583, -0.17359447
487, 3354045143, -129.90553283691406, 72.14910888671875, -23.94786834716797, 0.090080194, -0.08651762, -0.17148781
488, 3354061810, -129.94741821289062, 72.13985443115234, -24.012357711791992, 0.050082773, -0.04209218, -0.17492008
489, 3354078477, -129.96302795410156, 72.13176727294922, -24.054872512817383, 0.023149636, -0.0148155615, -0.21155262
490, 3354095144, -129.96934509277344, 72.12590026855469, -24.081066131591797, -0.0073611755, -0.046114076, -0.21654415
491, 3354111811, -129.9504852294922, 72.11849975585938, -24.081928253173828, -0.0146720605, -0.031282425, -0.16600704
492, 3354128478, -129.9049835205078, 72.1108627319336, -24.04269027709961, -0.059098836, -0.035126626, -0.1933651
493, 3354145145, -129.84190368652344, 72.11518096923828, -23.985027313232422, -0.118326195, -0.10601421, -0.24157047
494, 3354161812, -129.74632263183594, 72.15258026123047, -23.90035629272461, -0.13534023, -0.20317037, -0.39811707
495, 3354178479, -129.6686553955078, 72.21698760986328, -23.830202102661133, 0.023457909, -0.24412912, -0.46808052
496, 3354195146, -129.67845153808594, 72.27522277832031, -23.863431930541992, 0.1974263, -0.19675577, -0.45661163
497, 3354211813, -129.78001403808594, 72.30963897705078, -24.047780990600586, 0.33138904, -0.16786024, -0.45011902
498, 3354228480, -129.94473266601562, 72.319091796875, -24.365629196166992, 0.24515304, -0.13659883, -0.4115715
499, 3354245147, -130.1985321044922, 72.3116683959961, -24.786483764648438, 0.07391819, 0.029261421, -0.3605175
500, 3354261814, -130.5601806640625, 72.30388641357422, -25.26783561706543, -0.0156235555, 0.19360805, -0.31005287
501, 3354278481, -131.0059814453125, 72.29135131835938, -25.769824981689453, -0.021053579, 0.26757428, -0.16312027
502, 3354295148, -131.5322723388672, 72.25839233398438, -26.307144165039062, 0.0033589527, 0.38012022, -0.020816803
503, 3354311815, -132.10818481445312, 72.20281219482422, -26.845592498779297, 0.048196994, 0.4068452, 0.107987404
504, 3354328482, -132.67926025390625, 72.13471221923828, -27.334619522094727, -0.007552726, 0.3616565, 0.22424793
505, 3354345149, -133.2023162841797, 72.06607818603516, -27.723142623901367, -0.1324541, 0.2926874, 0.26859856
506, 3354361816, -133.6705780029297, 72.00579071044922, -27.973068237304688, -0.17372142, 0.22339249, 0.2083559
507, 3354378483, -134.06277465820312, 71.95639038085938, -28.05092430114746, -0.15630195, 0.037093986, 0.14160728
508, 3354395150, -134.36520385742188, 71.91339874267578, -27.98712730407715, -0.046789754, -0.17640693, 0.034172058
509, 3354411817, -134.5811004638672, 71.86122131347656, -27.825620651245117, 0.11414069, -0.2575028, -0.08927441
510, 3354428484, -134.67042541503906, 71.80582427978516, -27.56845474243164, 0.19855013, -0.2868022, -0.17787457
511, 3354445151, -134.64381408691406, 71.74418640136719, -27.261510848999023, 0.15186432, -0.2592558, -0.23187351
512, 3354461818, -134.56216430664062, 71.6693344116211, -26.97352409362793, 0.1156313, -0.16103795, -0.27365494
513, 3354478485, -134.5109405517578, 71.58838653564453, -26.759613037109375, 0.09998539, -0.08998207, -0.37237453
514, 3354495152, -134.5206756591797, 71.49209594726562, -26.64031982421875, 0.017797666, -0.013918599, -0.42480183
515, 3354511819, -134.5874786376953, 71.37664031982422, -26.60080337524414, -0.0752776, 0.08827577, -0.407032
516, 3354528486, -134.73216247558594, 71.2450180053711, -26.64976692199707, -0.15378876, 0.19332843, -0.37727928
517, 3354545153, -134.90151977539062, 71.12651062011719, -26.711143493652344, -0.19873588, 0.21036324, -0.38068676
518, 3354561820, -135.0193328857422, 71.06314849853516, -26.67452621459961, -0.21013883, 0.10961142, -0.37627888
519, 3354578487, -135.07884216308594, 71.06112670898438, -26.50806427001953, -0.2060662, -0.15876795, -0.31139183
520, 3354595154, -135.06378173828125, 71.12339782714844, -26.222820281982422, -0.15897895, -0.46822566, -0.24586868
521, 3354611821, -134.9537353515625, 71.23503875732422, -25.864246368408203, -0.0112661645, -0.70432216, -0.20235634
522, 3354628488, -134.73223876953125, 71.36902618408203, -25.503416061401367, 0.19543414, -0.8272163, -0.14219189
523, 3354645155, -134.40805053710938, 71.49044799804688, -25.204883575439453, 0.31799233, -0.8477265, -0.15148067
524, 3354661822, -134.0072479248047, 71.58128356933594, -24.995113372802734, 0.30199686, -0.7532548, -0.073610306
525, 3354678489, -133.54714965820312, 71.64937591552734, -24.843778610229492, 0.12435009, -0.5882137, -0.02520752
526, 3354695156, -133.1068878173828, 71.70345306396484, -24.757768630981445, -0.05709996, -0.28909725, -0.088959694
527, 3354711823, -132.72271728515625, 71.74039459228516, -24.698650360107422, -0.1679483, -0.04300434, -0.08333206
528, 3354728490, -132.42391967773438, 71.74980926513672, -24.675321578979492, -0.21208385, 0.08192398, -0.04370594
529, 3354745157, -132.30894470214844, 71.7289810180664, -24.776538848876953, -0.1769532, 0.17475137, -0.01939392
530, 3354761824, -132.4059600830078, 71.66646575927734, -25.053329467773438, -0.15248255, 0.28765982, -0.13617706
531, 3354778491, -132.6815948486328, 71.54837799072266, -25.4976806640625, -0.12635523, 0.503496, -0.30308247
532, 3354795158, -133.0697784423828, 71.38553619384766, -26.0284366607666, -0.07107735, 0.6776553, -0.34729004
533, 3354811825, -133.50534057617188, 71.21271514892578, -26.55878257751465, -0.015397361, 0.6478813, -0.32918453
534, 3354828492, -133.90599060058594, 71.05322265625, -27.004568099975586, 0.03778844, 0.5783161, -0.28536034
535, 3354845159, -134.2430877685547, 70.91954040527344, -27.351177215576172, 0.050361715, 0.48579133, -0.23730946
536, 3354861826, -134.48667907714844, 70.81726837158203, -27.592334747314453, 0.014490345, 0.32854235, -0.11132336
537, 3354878493, -134.6485595703125, 70.7509536743164, -27.768054962158203, -0.0038428511, 0.12687197, -0.030104637
538, 3354895160, -134.7515411376953, 70.71932983398438, -27.912708282470703, 0.0049564, -0.044665713, 0.011334419
539, 3354911827, -134.79469299316406, 70.7148208618164, -28.007165908813477, -0.022551563, -0.16174805, 0.017717361
540, 3354928494, -134.77906799316406, 70.73665618896484, -28.03289031982422, -0.016308175, -0.3086126, -0.010345459
541, 3354945161, -134.7174072265625, 70.77301025390625, -28.028839111328125, 0.11959016, -0.37448412, -0.022943497
542, 3354961828, -134.57530212402344, 70.82191467285156, -27.98350715637207, 0.3656558, -0.423781, -0.0973587
543, 3354978495, -134.33775329589844, 70.88066864013672, -27.897205352783203, 0.4495601, -0.5015282, -0.21183968
544, 3354995162, -134.0419921875, 70.94158172607422, -27.80177116394043, 0.3790811, -0.45019108, -0.2770548
545, 3355011829, -133.70816040039062, 70.99532318115234, -27.706161499023438, 0.25310048, -0.23682271, -0.338562
546, 3355028496, -133.3713836669922, 71.0362777709961, -27.6116943359375, 0.06913412, -0.09562756, -0.3528509
547, 3355045163, -133.0526885986328, 71.07481384277344, -27.513456344604492, -0.09881955, -0.006321617, -0.34407616
548, 3355061830, -132.75823974609375, 71.12100982666016, -27.385019302368164, -0.1866664, 0.08328674, -0.3399744
549, 3355078497, -132.4930419921875, 71.17780303955078, -27.21765899658203, -0.22132878, 0.11717577, -0.3493824
550, 3355095164, -132.26626586914062, 71.24560546875, -27.019325256347656, -0.19614334, 0.050715536, -0.34725475
551, 3355111831, -132.07521057128906, 71.32130432128906, -26.80353355407715, -0.1397897, -0.04428887, -0.28430462
552, 3355128498, -131.9059600830078, 71.40191650390625, -26.582290649414062, -0.03943484, -0.1365492, -0.2400465
553, 3355145165, -131.73507690429688, 71.48258972167969, -26.375102996826172, 0.095843755, -0.2838368, -0.18545246
554, 3355161832, -131.56341552734375, 71.5484848022461, -26.230390548706055, 0.25269502, -0.3578478, -0.18199444
555, 3355178499, -131.40675354003906, 71.60398864746094, -26.17339515686035, 0.35689542, -0.3501223, -0.32887173
556, 3355195166, -131.30844116210938, 71.64493560791016, -26.231313705444336, 0.26421267, -0.21347141, -0.47555065
557, 3355211833, -131.31704711914062, 71.65306854248047, -26.406147003173828, 0.12554947, 0.03633851, -0.48811913
558, 3355228500, -131.4515838623047, 71.63191986083984, -26.674394607543945, -0.021345934, 0.24517517, -0.47264957
559, 3355245167, -131.7082977294922, 71.59111022949219, -27.01922035217285, -0.12403293, 0.37506524, -0.4315424
560, 3355261834, -132.08763122558594, 71.53871154785156, -27.431182861328125, -0.1911503, 0.5120248, -0.2648201
561, 3355278501, -132.56288146972656, 71.48558044433594, -27.872303009033203, -0.22173223, 0.66862965, -0.07427025
562, 3355295168, -133.06436157226562, 71.44925689697266, -28.26524543762207, -0.20161338, 0.6299248, 0.039610863
563, 3355311835, -133.55088806152344, 71.4415283203125, -28.577152252197266, -0.12459372, 0.48660246, 0.046103477
564, 3355328502, -133.99746704101562, 71.4605712890625, -28.82142448425293, -0.017220778, 0.24271026, 0.026220322
565, 3355345169, -134.36801147460938, 71.50425720214844, -29.005266189575195, 0.119583234, 0.012545112, 0.02618885
566, 3355361836, -134.6236114501953, 71.55693054199219, -29.127532958984375, 0.2593982, -0.15714994, 0.029697418
567, 3355378503, -134.7649688720703, 71.60835266113281, -29.206653594970703, 0.30629566, -0.29042736, 0.02991581
568, 3355395170, -134.81307983398438, 71.65706634521484, -29.262855529785156, 0.3063721, -0.35619158, 0.012625694
569, 3355411837, -134.7821044921875, 71.69686889648438, -29.287113189697266, 0.15983613, -0.35109794, 0.024609566
570, 3355428504, -134.67298889160156, 71.72151184082031, -29.255247116088867, 0.10088635, -0.2681981, -0.00493145
571, 3355445171, -134.51145935058594, 71.73812866210938, -29.175451278686523, 0.07783391, -0.081565686, -0.09433079
572, 3355461838, -134.3250732421875, 71.76376342773438, -29.041080474853516, -0.019968424, -0.014357578, -0.16821957
573, 3355478505, -134.13140869140625, 71.80052947998047, -28.862207412719727, -0.10077663, -0.030901784, -0.2534132
574, 3355495172, -133.952392578125, 71.83773803710938, -28.68149757385254, -0.06101859, -0.006845978, -0.33348942
575, 3355511839, -133.80770874023438, 71.86622619628906, -28.536222457885742, -0.0074617565, 0.0408271, -0.40023422
576, 3355528506, -133.7233428955078, 71.88880157470703, -28.447391510009766, -0.062665656, 0.012683466, -0.41591644
577, 3355545173, -133.70489501953125, 71.90033721923828, -28.422443389892578, -0.11829222, -0.02419729, -0.35478115
578, 3355561840, -133.74484252929688, 71.8982925415039, -28.453981399536133, -0.13991398, 0.07260393, -0.35149097
579, 3355578507, -133.86138916015625, 71.88362121582031, -28.554346084594727, -0.10474353, 0.10478466, -0.31028843
580, 3355595174, -134.04400634765625, 71.86262512207031, -28.70445442199707, -0.104215376, 0.09058287, -0.22096157
581, 3355611841, -134.2588653564453, 71.84520721435547, -28.872432708740234, -0.0992478, 0.030143851, -0.12802029
582, 3355628508, -134.5048065185547, 71.82608795166016, -29.073413848876953, -0.061471205, 0.01087994, -0.122805595
583, 3355645175, -134.77081298828125, 71.80608367919922, -29.309038162231445, -0.03358148, -0.01576638, -0.10323429
584, 3355661842, -135.02816772460938, 71.7838363647461, -29.554676055908203, -0.027856419, -0.077589616, -0.068071365
585, 3355678509, -135.2790985107422, 71.75875854492188, -29.80646514892578, -0.019411206, -0.0473805, -0.055685043
586, 3355695176, -135.51171875, 71.73622131347656, -30.04840660095215, 0.00464812, -0.039636303, -0.05753231
587, 3355711843, -135.70184326171875, 71.71939086914062, -30.25458335876465, 0.019091805, -0.023228137, -0.062077522
588, 3355728510, -135.83636474609375, 71.71163177490234, -30.409818649291992, 0.07383303, -0.036302302, -0.084589005
589, 3355745177, -135.9451446533203, 71.70465087890625, -30.556501388549805, 0.13030246, -9.286963E-4, -0.14671898
590, 3355761844, -136.0285186767578, 71.68936920166016, -30.70709991455078, 0.21324342, 0.01809695, -0.1379137
591, 3355778511, -136.0765838623047, 71.66959381103516, -30.846019744873047, 0.16652788, 0.052903727, -0.13713264
592, 3355795178, -136.0866241455078, 71.64849090576172, -30.95258331298828, 0.068694025, 0.10034279, -0.14347649
593, 3355811845, -136.0751495361328, 71.62689971923828, -31.01246452331543, -0.016097626, 0.12822267, -0.15524101
594, 3355828512, -136.0500946044922, 71.60913848876953, -31.01914405822754, -0.058652036, 0.10902001, -0.15803051
595, 3355845179, -136.0256805419922, 71.59790802001953, -30.986440658569336, -0.051510125, 0.054994244, -0.1716137
596, 3355861846, -136.0052490234375, 71.5881118774414, -30.93560028076172, -0.062378667, 0.012826738, -0.18863392
597, 3355878513, -135.99314880371094, 71.5730209350586, -30.881559371948242, -0.0123106465, -0.038588617, -0.20745087
598, 3355895180, -135.98753356933594, 71.55545043945312, -30.82354736328125, 0.042311672, -0.046019305, -0.21804523
599, 3355911847, -135.9894256591797, 71.53651428222656, -30.77794647216797, 0.05949736, -0.056353204, -0.21219254
600, 3355928514, -136.0164337158203, 71.50845336914062, -30.76860237121582, 0.06599689, -0.03041296, -0.19524193
601, 3355945181, -136.04574584960938, 71.46925354003906, -30.780574798583984, 0.03424464, -0.024093356, -0.17994404
602, 3355961848, -136.0580596923828, 71.4304428100586, -30.781152725219727, 0.025417484, -0.02967761, -0.18719387
603, 3355978515, -136.07421875, 71.39027404785156, -30.785118103027344, -9.298139E-4, -0.073492624, -0.22339916
604, 3355995182, -136.12667846679688, 71.34454345703125, -30.813066482543945, -0.049047682, -0.039614767, -0.18359661
605, 3356011849, -136.19068908691406, 71.30332946777344, -30.831867218017578, -0.049613617, -0.052059744, -0.16427422
606, 3356028516, -136.25228881835938, 71.26435852050781, -30.84165382385254, -0.050976153, -0.09005516, -0.13483047
607, 3356045183, -136.3114013671875, 71.22760772705078, -30.861574172973633, 0.013125799, -0.086871214, -0.16691399
608, 3356061850, -136.36550903320312, 71.18811798095703, -30.896535873413086, 0.084850885, -0.09922746, -0.19716454
609, 3356078517, -136.39959716796875, 71.14842987060547, -30.925748825073242, 0.12009619, -0.091657296, -0.20590973
610, 3356095184, -136.41355895996094, 71.10621643066406, -30.955934524536133, 0.075696684, -0.021520944, -0.25240612
611, 3356111851, -136.43414306640625, 71.05329895019531, -31.003454208374023, 0.03419145, 0.025309043, -0.2586813
612, 3356128518, -136.4503936767578, 70.99453735351562, -31.04077911376953, -0.043131296, 0.046898607, -0.19136429
613, 3356145185, -136.45533752441406, 70.94535064697266, -31.04647445678711, -0.09431688, 0.039302517, -0.1492796
614, 3356161852, -136.45045471191406, 70.90875244140625, -31.01298713684082, -0.10350975, 0.04841358, -0.120993614
615, 3356178519, -136.43734741210938, 70.88126373291016, -30.957420349121094, -0.107154794, 0.035487823, -0.080739975
616, 3356195186, -136.39659118652344, 70.86224365234375, -30.876014709472656, 0.009299927, 0.0069675692, -0.08523178
617, 3356211853, -136.30999755859375, 70.84574127197266, -30.758869171142578, 0.05822043, -0.05567462, -0.06375599
618, 3356228520, -136.1711883544922, 70.83431243896484, -30.621490478515625, 0.1161583, -0.13153328, -0.07974434
619, 3356245187, -135.97958374023438, 70.82229614257812, -30.469289779663086, 0.120220244, -0.17478892, -0.12272644
620, 3356261854, -135.73721313476562, 70.81333923339844, -30.28038787841797, 0.050226938, -0.18718606, -0.17354012
621, 3356278521, -135.46676635742188, 70.80708312988281, -30.055469512939453, -0.062826365, -0.14025795, -0.21530151
622, 3356295188, -135.1860809326172, 70.7995834350586, -29.813892364501953, -0.07963968, -0.05935476, -0.2912531
623, 3356311855, -134.89154052734375, 70.78846740722656, -29.54770278930664, -0.04370036, 0.0070203184, -0.3330698
624, 3356328522, -134.58932495117188, 70.78063201904297, -29.261354446411133, -0.07243317, 0.07381716, -0.32551003
625, 3356345189, -134.28207397460938, 70.78201293945312, -28.96926498413086, -0.10222544, 0.10374197, -0.2866249
626, 3356361856, -133.9604034423828, 70.79347229003906, -28.643444061279297, -0.11339125, 0.107456535, -0.29297733
627, 3356378523, -133.63575744628906, 70.81185150146484, -28.29605484008789, -0.124384515, 0.039893486, -0.3124733
628, 3356395190, -133.34698486328125, 70.8365478515625, -27.97088623046875, -0.029526956, -0.050856795, -0.33128834
629, 3356411857, -133.08621215820312, 70.86253356933594, -27.660816192626953, 0.042827986, -0.093555145, -0.31583214
630, 3356428524, -132.84317016601562, 70.88654327392578, -27.382171630859375, 0.076791674, -0.1204746, -0.30362988
631, 3356445191, -132.6385040283203, 70.90039825439453, -27.157657623291016, 0.06839765, -0.11074106, -0.25850487
632, 3356461858, -132.46746826171875, 70.90440368652344, -26.973230361938477, 0.057322133, -0.09521227, -0.20702171
633, 3356478525, -132.33670043945312, 70.90814208984375, -26.8311824798584, 0.05105505, -0.0844461, -0.22300243
634, 3356495192, -132.25732421875, 70.90076446533203, -26.735923767089844, -0.0025008866, -0.07618931, -0.25196457
635, 3356511859, -132.25682067871094, 70.88446807861328, -26.6968994140625, -0.048948187, -0.0630186, -0.26054668
636, 3356528526, -132.31732177734375, 70.86455535888672, -26.702232360839844, -0.05509371, -0.053971227, -0.30056477
637, 3356545193, -132.4344940185547, 70.83180236816406, -26.753267288208008, -0.015474696, -0.03442301, -0.28632736
638, 3356561860, -132.56942749023438, 70.79296875, -26.833127975463867, 0.060432762, -0.04463956, -0.24204063
639, 3356578527, -132.71229553222656, 70.75001525878906, -26.961671829223633, 0.15896398, -0.023250936, -0.19696999
640, 3356595194, -132.83477783203125, 70.71163940429688, -27.092134475708008, 0.12859416, 0.011344177, -0.15097809
641, 3356611861, -132.91824340820312, 70.68170166015625, -27.191652297973633, 0.0034345002, -0.0026703093, -0.13237858
642, 3356628528, -132.99742126464844, 70.65147399902344, -27.28612518310547, -0.023657057, 0.04215119, -0.12704277
643, 3356645195, -133.07254028320312, 70.62294006347656, -27.376989364624023, 0.052372437, 0.060440138, -0.09322262
644, 3356661862, -133.13265991210938, 70.5986099243164, -27.445266723632812, 0.096381694, 0.026831388, -0.08247566
645, 3356678529, -133.164794921875, 70.58370208740234, -27.481616973876953, 0.07677379, 0.03339887, -0.07127857
646, 3356695196, -133.1658935546875, 70.57127380371094, -27.494924545288086, 0.025463937, 0.067951515, -0.09104633
647, 3356711863, -133.14630126953125, 70.5609130859375, -27.47795295715332, 0.016653951, 0.10523996, -0.124718666
648, 3356728530, -133.1027374267578, 70.55815887451172, -27.43224334716797, 0.016084664, 0.09359761, -0.15365124
649, 3356745197, -133.0489501953125, 70.56446838378906, -27.371994018554688, 0.053878468, 0.03299878, -0.14161587
650, 3356761864, -132.96519470214844, 70.57550048828125, -27.300113677978516, 0.0865916, 0.023690362, -0.16932201
651, 3356778531, -132.85675048828125, 70.5858383178711, -27.219099044799805, 0.07502455, 0.08330946, -0.18019962
652, 3356795198, -132.7415771484375, 70.59598541259766, -27.128568649291992, 0.013957043, 0.03988052, -0.15227032
653, 3356811865, -132.62841796875, 70.60301208496094, -27.018875122070312, -0.0057932325, 0.023378337, -0.16379738
654, 3356828532, -132.5276336669922, 70.60772705078125, -26.929241180419922, 0.0013855568, 0.0027474212, -0.15006924
655, 3356845199, -132.44305419921875, 70.61355590820312, -26.8513126373291, 0.037790675, 0.011604345, -0.23308659
656, 3356861866, -132.39208984375, 70.61946105957031, -26.80704116821289, 0.068117134, 0.039653208, -0.2716179
657, 3356878533, -132.38365173339844, 70.62139892578125, -26.80815315246582, 0.050224703, 0.07341305, -0.2821083
658, 3356895200, -132.4082489013672, 70.61997985839844, -26.846086502075195, -0.021280669, 0.09768097, -0.3008213
659, 3356911867, -132.471923828125, 70.6175308227539, -26.911457061767578, -0.08977442, 0.055622093, -0.27546215
660, 3356928534, -132.55508422851562, 70.61785888671875, -26.984107971191406, -0.08531042, -0.004835256, -0.2848835
661, 3356945201, -132.6508026123047, 70.61990356445312, -27.053937911987305, -0.018254526, -0.028959233, -0.2826414
662, 3356961868, -132.76808166503906, 70.61730194091797, -27.143856048583984, 0.059280775, -0.061800662, -0.2444706
663, 3356978535, -132.89569091796875, 70.61177062988281, -27.254878997802734, 0.07883302, -0.06389811, -0.20901585
664, 3356995202, -133.02420043945312, 70.60829162597656, -27.3807373046875, 0.05024482, -0.06500472, -0.17643452
665, 3357011869, -133.12841796875, 70.601318359375, -27.48162078857422, 0.027049985, -0.09808285, -0.15370464
666, 3357028536, -133.21224975585938, 70.59584045410156, -27.584121704101562, -0.004640576, -0.0909168, -0.16696739
667, 3357045203, -133.29624938964844, 70.59000396728516, -27.648006439208984, -0.011514026, -0.046689946, -0.19491768
668, 3357061870, -133.37649536132812, 70.58535766601562, -27.73447036743164, 0.028302105, -0.06584267, -0.1864891
669, 3357078537, -133.44309997558594, 70.58099365234375, -27.80568504333496, 0.023117498, -0.08057642, -0.15317059
670, 3357095204, -133.50254821777344, 70.58007049560547, -27.87352752685547, 0.09247178, -0.02044406, -0.15592003
671, 3357111871, -133.53536987304688, 70.58207702636719, -27.93310546875, 0.06466185, -0.0029441128, -0.17597294
672, 3357128538, -133.53375244140625, 70.5872573852539, -27.97163963317871, 0.045464322, -0.041260045, -0.20800304
673, 3357145205, -133.5312042236328, 70.59226989746094, -28.00843048095703, 0.016744921, -6.177898E-4, -0.24120235
674, 3357161872, -133.5355987548828, 70.59364318847656, -28.05669593811035, 0.02519058, 0.019739099, -0.24530983
675, 3357178539, -133.54139709472656, 70.58975982666016, -28.107450485229492, 0.022315757, 0.06712407, -0.22383213
676, 3357195206, -133.55441284179688, 70.58842468261719, -28.151798248291016, -0.017484078, 0.05061451, -0.19655228
677, 3357211873, -133.57423400878906, 70.59256744384766, -28.18116569519043, -0.0802483, 0.05135568, -0.20187092
678, 3357228540, -133.61521911621094, 70.59365844726562, -28.22105598449707, -0.044556413, 0.056813642, -0.2379961
679, 3357245207, -133.67709350585938, 70.59440612792969, -28.253801345825195, 0.012365407, 0.04832909, -0.23737526
680, 3357261874, -133.7367706298828, 70.59486389160156, -28.2720947265625, 0.0075777597, -0.0034503695, -0.23287201
681, 3357278541, -133.80975341796875, 70.5958251953125, -28.30734634399414, -0.034031637, -0.018588679, -0.20452118
682, 3357295208, -133.88629150390625, 70.59613037109375, -28.34639549255371, -0.017494582, -0.03265189, -0.16613483
683, 3357311875, -133.94549560546875, 70.5985336303711, -28.382572174072266, 0.03629901, -0.041403066, -0.1217041
684, 3357328542, -133.9872589111328, 70.60691833496094, -28.42288589477539, 0.041846767, -0.07071034, -0.13998413
685, 3357345209, -134.01605224609375, 70.61822509765625, -28.479543685913086, 0.04818649, -0.029866919, -0.15140629
686, 3357361876, -134.0421142578125, 70.62771606445312, -28.566200256347656, 0.07345351, -0.0079910355, -0.1806593
687, 3357378543, -134.06654357910156, 70.63107299804688, -28.643651962280273, 0.03519189, 0.006814016, -0.20033073
688, 3357395210, -134.0961151123047, 70.628662109375, -28.71727180480957, -0.034766994, 0.021264352, -0.21599293
689, 3357411877, -134.13841247558594, 70.62781524658203, -28.788280487060547, -0.09108019, 0.033413175, -0.22363663
690, 3357428544, -134.18972778320312, 70.63233947753906, -28.820884704589844, -0.10776185, 0.057868175, -0.24796963
691, 3357445211, -134.2481689453125, 70.63973236083984, -28.840293884277344, -0.08789021, 0.026052, -0.23267078
692, 3357461878, -134.31411743164062, 70.64563751220703, -28.85024070739746, -0.020873427, 0.040009044, -0.20491695
693, 3357478545, -134.38902282714844, 70.64893341064453, -28.87674331665039, 0.06996224, -0.025410295, -0.21572304
694, 3357495212, -134.44705200195312, 70.65132904052734, -28.926042556762695, 0.089857124, -0.049078528, -0.20440578
695, 3357511879, -134.49302673339844, 70.65194702148438, -28.991697311401367, 0.08328562, -0.054685127, -0.2191391
696, 3357528546, -134.53787231445312, 70.65316772460938, -29.060029983520508, 0.035506822, -0.06971771, -0.24625015
697, 3357545213, -134.5882568359375, 70.6508560180664, -29.132564544677734, -0.022443382, -0.018900031, -0.21530437
698, 3357561880, -134.66404724121094, 70.6416244506836, -29.22784423828125, -0.032207992, 0.029275727, -0.17104912
699, 3357578547, -134.7408905029297, 70.63127899169922, -29.308990478515625, -0.0799897, 0.019632261, -0.11970711
700, 3357595214, -134.83290100097656, 70.6237564086914, -29.37149429321289, -0.067309566, -0.02874137, -0.11734295
701, 3357611881, -134.9379425048828, 70.62387084960938, -29.440013885498047, -0.006723717, -0.0704334, -0.19019318
702, 3357628548, -135.04885864257812, 70.6283950805664, -29.51752281188965, 0.05956799, -0.0402292, -0.277318
703, 3357645215, -135.15682983398438, 70.63687896728516, -29.599130630493164, 0.11724305, -0.025884813, -0.3172388
704, 3357661882, -135.2455291748047, 70.64331817626953, -29.682615280151367, 0.07906681, -0.024020715, -0.28960896
705, 3357678549, -135.32896423339844, 70.64454650878906, -29.776845932006836, 0.029550647, 0.05097906, -0.25399113
706, 3357695216, -135.395751953125, 70.64371490478516, -29.858585357666016, -0.019292744, 0.11353922, -0.17508507
707, 3357711883, -135.4541473388672, 70.64551544189453, -29.916851043701172, -0.01247627, 0.11562303, -0.18457317
708, 3357728550, -135.50335693359375, 70.6543197631836, -29.948522567749023, 0.047547016, 0.053258892, -0.2113514
709, 3357745217, -135.5345916748047, 70.66305541992188, -29.949403762817383, 0.10712842, 0.035334494, -0.3261423
710, 3357761884, -135.5322723388672, 70.65739440917969, -29.900543212890625, 0.22038914, 0.035276826, -0.3973608
711, 3357778551, -135.48899841308594, 70.63726043701172, -29.83902359008789, 0.3029888, 0.039760944, -0.51427555
712, 3357795218, -135.40957641601562, 70.6059799194336, -29.77591896057129, 0.30786562, 0.13737933, -0.3412447
713, 3357811885, -135.2220458984375, 70.56346893310547, -29.651525497436523, 0.26346523, 0.3238345, 0.006467819
714, 3357828552, -134.96328735351562, 70.52635192871094, -29.48178482055664, 0.20813392, 0.38382515, 0.21026993
715, 3357845219, -134.68792724609375, 70.50776672363281, -29.308259963989258, 0.2650944, 0.30350175, 0.11555481
716, 3357861886, -134.40928649902344, 70.49064636230469, -29.157739639282227, 0.2304848, 0.2110162, 0.05399704
717, 3357878553, -134.04244995117188, 70.45552825927734, -28.953609466552734, 0.31036204, 0.08690966, -0.096749306
718, 3357895220, -133.6772918701172, 70.38225555419922, -28.796709060668945, 0.33185416, 0.0987697, -0.19853973
719, 3357911887, -133.43479919433594, 70.21794128417969, -28.803638458251953, 0.35294864, 0.03749765, -0.34852314
720, 3357928554, -133.52125549316406, 69.87578582763672, -29.238000869750977, 0.32016912, -0.11940174, -0.53439045
721, 3357945221, -133.3851318359375, 69.3760986328125, -29.641931533813477, 0.3035469, -0.28435564, -0.061685562
722, 3357961888, -132.8842010498047, 68.87371826171875, -29.681421279907227, 0.60392684, -0.28616676, 0.15449142
723, 3357978555, -132.4061279296875, 68.46862030029297, -29.61514663696289, 1.344202, -0.35900787, 0.2046175
724, 3357995222, -131.72659301757812, 68.07708740234375, -29.421716690063477, 1.6210908, -0.21344504, 0.19824123
725, 3358011889, -130.86697387695312, 67.55553436279297, -29.28691291809082, 2.1556509, 0.59471387, 0.13459682
726, 3358028556, -129.73013305664062, 66.99446105957031, -29.053247451782227, 1.8524323, 0.3267974, 0.6382351
727, 3358045223, -128.03517150878906, 66.54242706298828, -28.420106887817383, 0.641104, 0.01194185, 0.6612482
728, 3358061890, -126.07221984863281, 66.12974548339844, -27.537689208984375, 0.2065358, 0.5514963, 0.3008356
729, 3358078557, -123.8632583618164, 65.66680145263672, -26.33173370361328, 0.37594947, 0.9061374, 0.2917509
730, 3358095224, -121.4815444946289, 65.17528533935547, -24.797317504882812, 0.27821663, 0.28615582, 0.17808819
731, 3358111891, -119.02510070800781, 64.60920715332031, -23.115005493164062, -0.21100204, -0.17114164, 0.36397076
732, 3358128558, -116.61544036865234, 63.97489929199219, -21.429962158203125, -0.33384103, -0.54743797, 0.4503994
733, 3358145225, -114.39885711669922, 63.318702697753906, -19.845897674560547, -0.32852402, -0.7775716, 0.40604305
734, 3358161892, -112.50126647949219, 62.66189956665039, -18.531293869018555, -0.36970407, -1.0138065, 0.046995163
735, 3358178559, -110.95207214355469, 62.02977752685547, -17.61313819885254, -0.28271753, -1.1092687, -0.43191624
736, 3358195226, -109.68896484375, 61.417205810546875, -17.103790283203125, -0.38018703, -0.90623885, -0.7808609
737, 3358211893, -108.628173828125, 60.81509780883789, -16.885793685913086, -0.3473485, -0.4266451, -0.83159447
738, 3358228560, -107.67053985595703, 60.15248107910156, -16.75582504272461, -0.1300461, -0.30358893, -0.71943665
739, 3358245227, -106.97781372070312, 59.32191467285156, -16.755298614501953, 0.08515754, -0.7101925, -0.61236477
740, 3358261894, -106.76318359375, 58.328948974609375, -16.98826026916504, -0.06513033, -1.2345665, -0.7076502
741, 3358278561, -107.14950561523438, 57.29121780395508, -17.521991729736328, -0.8225943, -1.1186448, -0.84939766
742, 3358295228, -107.9978256225586, 56.40632629394531, -18.24921226501465, -1.6871424, -0.33561766, -1.1369753
743, 3358311895, -109.11334228515625, 55.650238037109375, -19.07268524169922, -2.0845814, 0.8620023, -1.1249628
744, 3358328562, -110.30992126464844, 54.9773063659668, -19.80440330505371, -1.6760569, 1.4050636, -0.9909134
745, 3358345229, -111.65287780761719, 54.385311126708984, -20.491565704345703, -0.74926686, 1.2043978, -0.9959755
746, 3358361896, -113.06514739990234, 53.89629364013672, -21.20781707763672, -0.50263524, 0.62190133, -0.70935535
747, 3358378563, -114.46414947509766, 53.540348052978516, -22.07333755493164, -0.44261667, 0.342311, -0.6661501
748, 3358395230, -115.80633544921875, 53.30589294433594, -23.228168487548828, -0.27124664, 0.39506137, -0.61559486
749, 3358411897, -116.88880920410156, 53.08786392211914, -24.601133346557617, -0.032104954, 0.45743224, 0.07399845
750, 3358428564, -117.62972259521484, 52.81486892700195, -26.075897216796875, -0.11994689, -0.2722598, 0.78924847
751, 3358445231, -118.27571105957031, 52.493682861328125, -27.730712890625, -0.5725063, -0.6540121, 0.21160126
752, 3358461898, -118.99497985839844, 52.13899612426758, -29.496084213256836, -1.0091273, -0.45122305, -0.10398197
753, 3358478565, -119.90319061279297, 51.77903747558594, -31.105112075805664, -1.30641, -0.36053398, 0.12579823
754, 3358495232, -121.02099609375, 51.494258880615234, -32.335365295410156, -1.3706158, 0.5234993, -0.028857231
755, 3358511899, -122.3125, 51.329044342041016, -33.19615936279297, -1.10714, 1.184724, -0.015929222
756, 3358528566, -123.7432632446289, 51.25883483886719, -33.86307144165039, -0.5972928, 0.9210377, -0.11041832
757, 3358545233, -125.19723510742188, 51.256778717041016, -34.421424865722656, 7.0272473E-4, 0.38546017, -0.22962856
758, 3358561900, -126.49617004394531, 51.295955657958984, -34.87890625, 0.6020795, 0.20200072, 0.06375027
759, 3358578567, -127.44335174560547, 51.39134979248047, -35.171016693115234, 0.99409175, 0.050553266, 0.59706116
760, 3358595234, -127.91397857666016, 51.46926498413086, -35.2574348449707, 1.6501383, 0.19045271, 0.37916946
761, 3358611901, -128.01141357421875, 51.484642028808594, -35.16503143310547, 1.8084321, -0.1823678, -0.028913498
762, 3358628568, -127.9478759765625, 51.44947814941406, -34.90733337402344, 1.1070468, -0.57837194, -0.051727295
763, 3358645235, -127.86801147460938, 51.37065887451172, -34.51491928100586, 0.5230179, -0.38752788, -0.09908962
764, 3358661902, -127.91973114013672, 51.27436447143555, -34.07576370239258, -0.07561845, -0.061356094, -0.3346777
765, 3358678569, -128.2548065185547, 51.20156478881836, -33.70439147949219, -0.5364749, 0.19911194, -0.7677727
766, 3358695236, -128.87525939941406, 51.18467712402344, -33.44068908691406, -0.64061403, 0.30026484, -0.98698044
767, 3358711903, -129.6479034423828, 51.17360305786133, -33.24981689453125, -0.1406424, 0.2541244, -0.9549675
768, 3358728570, -130.3539581298828, 51.125728607177734, -33.085941314697266, 0.17482781, 0.38067004, -0.98274994
769, 3358745237, -130.85862731933594, 51.14902114868164, -33.006614685058594, -0.3933808, 1.0375749, -0.93921566
770, 3358761904, -131.109375, 51.3236198425293, -33.0045166015625, -0.65401655, 1.6694514, -0.6071415
771, 3358778571, -131.0266876220703, 51.56654739379883, -32.97673797607422, 0.25524285, 0.71786773, -0.2324791
772, 3358795238, -130.53968811035156, 51.64677810668945, -32.86574172973633, 1.4246927, -1.755469, -0.12631226
773, 3358811905, -129.885986328125, 51.46438980102539, -32.8087158203125, 1.853184, -3.2355175, -0.094332695
774, 3358828572, -129.3677520751953, 51.16902542114258, -32.96366882324219, 1.0281023, -2.4040055, 0.35832977
775, 3358845239, -129.1497039794922, 50.90342712402344, -33.259674072265625, -0.25258148, -0.53715706, 0.50119114
776, 3358861906, -129.2709503173828, 50.73671340942383, -33.63850021362305, -1.3045998, 0.926503, -0.3057003
777, 3358878573, -129.63307189941406, 50.65193176269531, -33.92812728881836, -1.6760128, 1.2724615, -0.6572647
778, 3358895240, -130.13893127441406, 50.63759994506836, -34.02864456176758, -1.4377643, 0.91499543, -0.7502241
779, 3358911907, -130.658447265625, 50.7158317565918, -33.91958236694336, -0.83888257, 0.61271363, -0.5029135
780, 3358928574, -131.0731964111328, 50.86671447753906, -33.64448547363281, -0.13390885, 0.30936182, -0.31489754
781, 3358945241, -131.32896423339844, 51.05538558959961, -33.32365036010742, 0.47681415, 0.062226295, -0.23670101
782, 3358961908, -131.38877868652344, 51.23094177246094, -33.10097122192383, 0.89984137, 0.21363682, -0.16784286
783, 3358978575, -131.1809539794922, 51.34122848510742, -33.01854705810547, 1.5135036, 1.0292025, -0.27117825
784, 3358995242, -130.61703491210938, 51.39993667602539, -32.98076629638672, 1.2525357, 0.45014212, 0.29872608
785, 3359011909, -129.8341522216797, 51.40228271484375, -33.058860778808594, 0.6885384, 0.23844832, 0.1031189
786, 3359028576, -129.13101196289062, 51.36341094970703, -33.304508209228516, 0.3515546, 0.7096867, -0.038848877
787, 3359045243, -128.49420166015625, 51.36309051513672, -33.497657775878906, -0.18734744, 0.8955308, 0.063241005
788, 3359061910, -127.91287231445312, 51.42217254638672, -33.48805236816406, -0.71594197, 1.1366373, -0.0031929016
789, 3359078577, -127.40764617919922, 51.55984115600586, -33.23535919189453, -1.0843943, 1.3944227, -0.11921406
790, 3359095244, -126.9466781616211, 51.7917594909668, -32.6616325378418, -0.9955312, 1.56421, -0.04510498
791, 3359111911, -126.518310546875, 52.149078369140625, -31.73781967163086, -0.62770486, 1.5608567, 0.1251421
792, 3359128578, -126.05518341064453, 52.63837814331055, -30.498096466064453, -0.31858063, 1.3887477, 0.106900215
793, 3359145245, -125.64982604980469, 53.17534255981445, -29.181564331054688, 0.24776076, 1.1961745, -0.10083008
794, 3359161912, -125.34383392333984, 53.65550994873047, -27.949161529541016, 0.4828794, 0.035617013, 0.35590076
795, 3359178579, -124.89817810058594, 54.082061767578125, -26.72635269165039, 0.34608746, -0.8245715, 0.63252544
796, 3359195246, -124.39818572998047, 54.40764236450195, -25.647302627563477, 0.61441743, -1.0902289, 0.6488571
797, 3359211913, -123.88134002685547, 54.652984619140625, -24.71206283569336, 0.8320034, -1.3040836, 0.5753603
798, 3359228580, -123.39493560791016, 54.766700744628906, -23.945642471313477, 0.7730989, -1.4488045, 0.41291523
799, 3359245247, -123.04804229736328, 54.70490646362305, -23.492895126342773, 0.69200015, -1.4638331, 0.3606043
800, 3359261914, -122.93814849853516, 54.50693130493164, -23.39327049255371, 0.5276669, -1.7019633, 0.57885456
801, 3359278581, -123.06967163085938, 54.17403793334961, -23.508882522583008, 0.16530348, -1.9748791, 0.7398987
802, 3359295248, -123.45574188232422, 53.664085388183594, -23.84282112121582, -0.1971505, -1.8737482, 0.7920799
803, 3359311915, -124.34162902832031, 53.03282165527344, -24.348052978515625, -1.0247371, -1.3772584, 0.61529636
804, 3359328582, -125.86673736572266, 52.33990478515625, -24.928264617919922, -1.6816005, -1.1942827, 0.38523674
805, 3359345249, -127.74893951416016, 51.55345916748047, -25.59135627746582, -1.4084189, -0.96634555, -0.009949684
806, 3359361916, -129.7275390625, 50.65358352661133, -26.44363021850586, -0.8430499, -0.9246398, 0.0057201385
807, 3359378583, -131.6560821533203, 49.660274505615234, -27.5435791015625, -0.31663895, -0.9774787, 0.40478134
808, 3359395250, -133.40313720703125, 48.65922164916992, -28.793481826782227, 0.109126516, -1.2720743, 0.5896063
809, 3359411917, -134.95773315429688, 47.623748779296875, -30.232318878173828, 0.17337677, -1.1206633, 0.45653915
810, 3359428584, -136.21339416503906, 46.51526641845703, -31.7620906829834, -0.09397893, -0.67743534, 0.40008354
811, 3359445251, -137.15716552734375, 45.339847564697266, -33.301231384277344, -0.5561521, -0.3869892, 0.45925522
812, 3359461918, -137.78781127929688, 44.12451934814453, -34.767311096191406, -0.93534184, 0.123121664, 0.42374897
813, 3359478585, -138.3241424560547, 42.944549560546875, -36.09196472167969, -1.5052638, 0.672292, 0.42145824
814, 3359495252, -138.9178466796875, 41.839202880859375, -37.30101776123047, -1.9783478, 0.99453276, 0.5179777
815, 3359511919, -139.71395874023438, 40.85086441040039, -38.368465423583984, -2.208512, 0.7824652, 0.6903715
816, 3359528586, -140.7535858154297, 39.99222183227539, -39.377113342285156, -2.1946652, 0.60857123, 0.51358986
817, 3359545253, -142.01559448242188, 39.23966979980469, -40.345794677734375, -1.626464, 0.56725264, 0.28135967
818, 3359561920, -143.34495544433594, 38.537193298339844, -41.257728576660156, -1.1767745, 0.54044384, 0.13538837
819, 3359578587, -144.64317321777344, 37.88795471191406, -42.130897521972656, -1.003855, 0.3874579, 0.048848152
820, 3359595254, -145.8331298828125, 37.26864242553711, -42.96209716796875, -1.0278891, -0.008027244, 0.18089294
821, 3359611921, -146.8086395263672, 36.62569808959961, -43.77790832519531, -0.908531, -0.44335136, 0.39860153
822, 3359628588, -147.34121704101562, 35.938331604003906, -44.58249282836914, -0.4659187, -0.86680293, 0.95173264
823, 3359645255, -147.5025634765625, 35.17313003540039, -45.43110656738281, -0.44632018, -1.4317379, 1.3291721
824, 3359661922, -147.4095001220703, 34.322959899902344, -46.32833480834961, -0.6229152, -1.9318916, 1.5140524
825, 3359678589, -147.09112548828125, 33.41706848144531, -47.22969436645508, -0.8847624, -1.917625, 1.5423498
826, 3359695256, -146.60916137695312, 32.454673767089844, -48.14915084838867, -1.1720902, -1.4936647, 1.3313637
827, 3359711923, -145.9707489013672, 31.457809448242188, -49.10104751586914, -1.3502557, -1.0819067, 0.9529877
828, 3359728590, -145.08987426757812, 30.3333797454834, -50.12255859375, -1.296498, -1.0972013, 0.701808
829, 3359745257, -143.8256378173828, 28.986032485961914, -51.28340530395508, -1.0045066, -1.6210811, 0.74095917
830, 3359761924, -141.9994354248047, 27.448041915893555, -52.63056182861328, -0.40203375, -1.6148022, 0.8641119
831, 3359778591, -139.92002868652344, 25.960298538208008, -54.06494140625, 0.035783976, 0.47172922, -0.03703022
832, 3359795258, -138.26414489746094, 24.656299591064453, -55.56793212890625, -1.2393882, 3.3221571, -3.0042214
833, 3359811925, -136.86395263671875, 23.56642723083496, -56.91617965698242, -0.38608956, 4.5615783, -4.913072
834, 3359828592, -135.7556915283203, 22.579132080078125, -58.0746955871582, 1.0046583, 4.195642, -4.759872
835, 3359845259, -134.8568572998047, 21.764862060546875, -59.05038833618164, 1.9752105, 4.674774, -3.9815145
836, 3359861926, -134.76893615722656, 21.26787757873535, -59.8668327331543, 1.3998648, 5.5342793, -4.5107102
837, 3359878593, -135.2028045654297, 21.06313133239746, -60.460235595703125, 2.5546105, 4.3689623, -4.477366
838, 3359895260, -135.6806640625, 20.864667892456055, -60.76675796508789, 3.0446923, 2.1162279, -2.8729973
839, 3359911927, -136.1405487060547, 20.594074249267578, -60.90128707885742, 2.4810643, 0.62171, -0.9696779
840, 3359928594, -136.5760498046875, 20.34709358215332, -61.022762298583984, 2.0192873, -0.39993933, -0.004559517
841, 3359945261, -137.1145477294922, 20.19295310974121, -61.14985275268555, 1.9293861, -0.74546576, 0.23455238
842, 3359961928, -137.82504272460938, 20.176931381225586, -61.11691665649414, 1.9851456, -1.2032646, 0.5363331
843, 3359978595, -138.69406127929688, 20.23704719543457, -60.97352981567383, 2.1471272, -1.9655681, 0.71559715
844, 3359995262, -139.5104522705078, 20.226638793945312, -60.89725112915039, 2.1466033, -2.1724968, 0.61086655
845, 3360011929, -140.02366638183594, 20.086854934692383, -60.90629959106445, 1.7052828, -1.6062611, 0.43385887
846, 3360028596, -140.22476196289062, 19.879873275756836, -60.953224182128906, 1.0202918, -0.99579954, 0.29078388
847, 3360045263, -140.2425994873047, 19.720211029052734, -61.00047302246094, 0.35998034, -0.6170956, 0.32764816
848, 3360061930, -140.3264923095703, 19.700681686401367, -61.07560729980469, 0.17851208, -0.9029919, 0.43388367
849, 3360078597, -140.41090393066406, 19.74773597717285, -61.21258544921875, 0.7771975, -2.0975988, 0.3718567
850, 3360095264, -140.27137756347656, 19.743072509765625, -61.41856384277344, 1.3327483, -2.8929222, 0.3350458
851, 3360111931, -139.94651794433594, 19.670177459716797, -61.6728401184082, 1.5739018, -3.0970197, 0.017279625
852, 3360128598, -139.5444793701172, 19.55476188659668, -61.94511032104492, 1.7398416, -2.9483848, -0.6088743
853, 3360145265, -139.15821838378906, 19.402864456176758, -62.21411895751953, 1.7365962, -2.636056, -1.2211351
854, 3360161932, -138.86045837402344, 19.24662208557129, -62.4690055847168, 1.4985266, -2.3391843, -1.6463242
855, 3360178599, -138.63026428222656, 19.095325469970703, -62.74007797241211, 1.2724363, -2.4389665, -2.0245552
856, 3360195266, -138.48362731933594, 18.950550079345703, -63.01357650756836, 1.1119063, -2.4968011, -2.1610641
857, 3360211933, -138.4321746826172, 18.847549438476562, -63.27883529663086, 1.2641618, -2.1953578, -2.1813931
858, 3360228600, -138.42881774902344, 18.810808181762695, -63.51047897338867, 1.9579766, -1.6001563, -2.120933
859, 3360245267, -138.52032470703125, 18.84579086303711, -63.70196533203125, 2.4764018, -0.6568471, -2.3626943
860, 3360261934, -138.6478729248047, 18.907634735107422, -63.85181427001953, 3.2353892, -0.14965712, -2.6333013
861, 3360278601, -138.77818298339844, 18.994178771972656, -63.864173889160156, 3.4544652, 0.22789605, -2.335382
862, 3360295268, -138.87725830078125, 19.193063735961914, -63.654441833496094, 3.229085, 0.6835016, -2.276917
863, 3360311935, -139.08570861816406, 19.484298706054688, -63.2708854675293, 3.3209674, 1.0068369, -2.6168242
864, 3360328602, -139.53004455566406, 19.860851287841797, -62.755245208740234, 3.1844606, 1.4886937, -2.7966924
865, 3360345269, -140.17544555664062, 20.390214920043945, -61.9406852722168, 2.3627, 2.048137, -2.7411432
866, 3360361936, -141.01449584960938, 21.063980102539062, -60.81281661987305, 1.7684962, 2.0181637, -2.914723
867, 3360378603, -142.11663818359375, 21.923248291015625, -59.6100959777832, 1.5304871, 1.7591782, -2.8916612
868, 3360395270, -143.4360809326172, 23.07696533203125, -58.42209243774414, 1.1391151, 1.5662326, -2.8883657
869, 3360411937, -144.7654571533203, 24.49175262451172, -57.192901611328125, 0.6214911, 1.3945769, -2.856472
870, 3360428604, -145.82797241210938, 26.056928634643555, -55.84083938598633, -0.09966644, 1.4753952, -2.6607141
871, 3360445271, -146.4635009765625, 27.710330963134766, -54.30219650268555, -0.7785153, 2.1860793, -2.105246
872, 3360461938, -146.7903289794922, 29.49985694885254, -52.558441162109375, -1.1136774, 2.1125302, -1.6129179
873, 3360478605, -146.96290588378906, 31.39629364013672, -50.649654388427734, -1.84747, 1.9448434, -1.2302189
874, 3360495272, -146.9803924560547, 33.384254455566406, -48.5970573425293, -2.5654585, 2.2700021, -0.40582466
875, 3360511939, -146.962158203125, 35.51502227783203, -46.40690994262695, -3.5315094, 2.6958766, 1.1801367
876, 3360528606, -146.85107421875, 37.748600006103516, -44.12763595581055, -4.0219574, 2.0912209, 2.792161
877, 3360545273, -146.67257690429688, 40.07469940185547, -42.048187255859375, -3.0497575, 0.4788823, 3.0632753
878, 3360561940, -146.41143798828125, 42.41596603393555, -40.3339729309082, -1.8405373, -0.9180463, 2.3171587
879, 3360578607, -146.07489013671875, 44.668678283691406, -38.99937057495117, -1.3007809, -1.2129878, 1.4134388
880, 3360595274, -145.6532745361328, 46.8641471862793, -37.942054748535156, -1.2947658, -0.83288974, 0.81444454
881, 3360611941, -145.17860412597656, 49.06736755371094, -36.87403869628906, -1.8834656, -0.07528207, 0.85542583
882, 3360628608, -144.60060119628906, 51.24527359008789, -35.52370834350586, -2.595479, 0.06500159, 1.407239
883, 3360645275, -143.9772491455078, 53.42302322387695, -33.860191345214844, -2.7690945, -0.60786027, 1.2604465
884, 3360661942, -143.37734985351562, 55.54396057128906, -32.099246978759766, -2.734413, -1.1010356, 1.4047403
885, 3360678609, -142.6150665283203, 57.65135955810547, -30.318605422973633, -2.465812, -0.78846407, 2.1175518
886, 3360695276, -141.69200134277344, 59.724151611328125, -28.696250915527344, -1.5211985, -0.57684535, 2.4667845
887, 3360711943, -140.66517639160156, 61.703853607177734, -27.413923263549805, -0.050551254, -0.9170578, 1.911623
888, 3360728610, -139.76156616210938, 63.53806686401367, -26.581512451171875, 0.74601984, -1.6462983, 0.8099575
889, 3360745277, -139.2909393310547, 65.19847869873047, -26.278671264648438, 0.4043839, -2.0140824, -0.013195038
890, 3360761944, -139.19667053222656, 66.71083068847656, -26.190927505493164, -0.765384, -1.752517, 0.07506466
891, 3360778611, -139.1778106689453, 68.03199005126953, -25.884464263916016, -1.8857757, -1.569073, 0.6756115
892, 3360795278, -139.08348083496094, 69.2508773803711, -25.31348419189453, -2.2255883, -1.8596336, 1.2122641
893, 3360811945, -139.12490844726562, 70.39775085449219, -24.804990768432617, -2.0136757, -2.1128933, 1.0802546
894, 3360828612, -139.1555938720703, 71.46128845214844, -24.273967742919922, -1.4647169, -1.7400047, 0.6767502
895, 3360845279, -139.19802856445312, 72.4317626953125, -23.813135147094727, -0.5475035, -1.4126616, 0.15693283
896, 3360861946, -139.4037322998047, 73.28363037109375, -23.735313415527344, 0.3716084, -1.4689238, 0.20982265
897, 3360878613, -139.9918212890625, 73.9273452758789, -24.262453079223633, 0.7338725, -1.8976102, 0.7830181
898, 3360895280, -140.97422790527344, 74.35784912109375, -25.412248611450195, 0.69359124, -1.8615042, 1.4317913
899, 3360911947, -142.02667236328125, 74.6723403930664, -26.737327575683594, 0.5078031, -1.0802698, 1.3952541
900, 3360928614, -142.911865234375, 74.95980834960938, -27.862979888916016, 0.18053342, -0.24537274, 1.2739344
901, 3360945281, -143.61656188964844, 75.08966827392578, -28.861083984375, 0.51056236, -0.035127968, 0.867898
902, 3360961948, -143.62161254882812, 75.06134796142578, -29.226694107055664, 0.7956212, 0.047769412, 0.7262306
903, 3360978615, -142.6593780517578, 74.94751739501953, -28.362018585205078, 1.4049014, 0.39761233, 0.6011925
904, 3360995282, -140.9593963623047, 74.89317321777344, -26.502124786376953, 0.8149374, 1.0158, 0.6417961
905, 3361011949, -139.68521118164062, 74.94770812988281, -24.91514778137207, -0.12136798, 1.2236177, -0.2837391
906, 3361028616, -138.81333923339844, 75.09065246582031, -23.74245834350586, -1.270943, 0.94217896, -1.2814503
907, 3361045283, -138.11038208007812, 75.25697326660156, -22.751144409179688, -2.0089993, 0.36373693, -1.7795153
908, 3361061950, -137.2106170654297, 75.3906021118164, -21.428491592407227, -2.41252, -0.09761213, -0.78883076
909, 3361078617, -136.5012969970703, 75.47885131835938, -20.138526916503906, -2.3203363, -0.705258, 0.66691494
910, 3361095284, -135.83624267578125, 75.66143798828125, -18.701292037963867, -1.1579126, -0.7919538, 0.33064365
911, 3361111951, -135.607666015625, 75.84286499023438, -17.692094802856445, 0.582691, -0.94209635, -0.32108116
912, 3361128618, -135.11465454101562, 75.93092346191406, -16.782968521118164, 1.9270436, -0.40025672, -0.31006336
913, 3361145285, -134.07400512695312, 75.97493743896484, -15.671560287475586, 2.2306309, -0.06994235, -0.15741539
914, 3361161952, -133.15968322753906, 75.92584228515625, -15.001863479614258, 1.2495755, -0.44683212, -0.1446085
915, 3361178619, -132.2647247314453, 75.82432556152344, -14.585394859313965, -0.15125982, -0.45818233, 0.109316826
916, 3361195286, -131.300537109375, 75.7435073852539, -14.030526161193848, -1.0609648, -0.51449484, -0.2503748
917, 3361211953, -130.29635620117188, 75.7242431640625, -13.16512680053711, -1.704199, -0.43008542, -0.5765152
918, 3361228620, -129.22808837890625, 75.74478149414062, -11.819673538208008, -1.7651746, -0.22719355, -0.23685932
919, 3361245287, -128.27163696289062, 75.78191375732422, -10.274868965148926, -1.0016215, -0.39905488, -0.11122131
920, 3361261954, -127.24382019042969, 75.79438781738281, -8.690740585327148, 0.12331668, -0.17274088, 0.004511833
921, 3361278621, -125.9115219116211, 75.7904281616211, -6.854801654815674, 0.7816492, 0.4223776, -0.08885193
922, 3361295288, -124.55382537841797, 75.78144073486328, -5.077295303344727, 0.49915272, 0.65203536, -0.23077297
923, 3361311955, -123.44940185546875, 75.78939819335938, -3.757709264755249, 0.08146455, 0.43168935, -0.51894665
924, 3361328622, -122.48299407958984, 75.7985610961914, -2.8753671646118164, -0.23987567, 0.36281225, -0.69599533
925, 3361345289, -121.31670379638672, 75.75129699707031, -1.833827018737793, -0.45399058, 0.45966223, -0.21866703
926, 3361361956, -120.41815948486328, 75.70545196533203, -0.8683812618255615, -0.5769653, 0.10339106, -0.21790409
927, 3361378623, -120.10442352294922, 75.72272491455078, -0.3166077136993408, -0.71277255, -0.25727278, -0.72645664
928, 3361395290, -120.08418273925781, 75.77719116210938, 0.0776570588350296, -0.53408265, -0.23176572, -0.9451237
929, 3361411957, -119.91775512695312, 75.76233673095703, 0.8146874904632568, -0.005965002, 0.35915962, -0.47197056
930, 3361428624, -119.58171081542969, 75.62826538085938, 1.866498351097107, 0.7351893, 0.79045826, -0.18898392
931, 3361445291, -119.46397399902344, 75.44132232666016, 2.7570042610168457, 0.50411826, 0.8595307, 0.12540245
932, 3361461958, -119.65589904785156, 75.2423095703125, 3.0502758026123047, 0.4446531, 0.4091845, 0.4662962
933, 3361478625, -120.01858520507812, 75.06503295898438, 2.6613337993621826, 0.20375453, 0.40877792, 0.21684933
934, 3361495292, -120.42525482177734, 74.97795104980469, 1.9345418214797974, -0.18140513, 1.0130922, -0.2738142
935, 3361511959, -120.7689208984375, 74.87118530273438, 1.3191128969192505, 0.37376016, 0.88070655, 0.029419899
936, 3361528626, -121.30667114257812, 74.65874481201172, 0.48369714617729187, 1.4063002, -0.060478136, 0.51092625
937, 3361545293, -121.94979095458984, 74.52788543701172, -0.5400574803352356, 0.6928797, 0.40202114, 0.28047657
938, 3361561960, -122.40510559082031, 74.59188842773438, -1.3109902143478394, -2.202438, 1.6104487, -0.42815208
939, 3361578627, -122.60562896728516, 74.78893280029297, -1.3983795642852783, -2.7840424, 1.4253453, -0.62183094
940, 3361595294, -122.31187438964844, 74.87132263183594, -0.6361458897590637, 0.64705795, 0.04323098, 0.37295246
941, 3361611961, -121.43032836914062, 74.8152847290039, 0.46876049041748047, 4.623675, -0.14368485, 1.1631737
942, 3361628628, -120.3785171508789, 74.72411346435547, 1.1573415994644165, 4.072522, -0.24385978, 0.3929119
943, 3361645295, -119.83848571777344, 74.68025207519531, 0.9086800813674927, 0.68265724, -1.3315629, -0.31376648
944, 3361661962, -120.09697723388672, 74.64834594726562, -0.08503355830907822, -1.2460523, -2.2729006, -0.5029688
945, 3361678629, -120.62080383300781, 74.68462371826172, -0.7357022762298584, -1.1967235, -0.9839239, -0.9200907
946, 3361695296, -120.68704986572266, 74.700439453125, -0.1608806848526001, -0.5123937, 1.0487756, -0.81186867
947, 3361711963, -120.87937927246094, 74.64155578613281, 0.5720908641815186, 0.37449986, 0.36644882, -0.14760876
948, 3361728630, -121.40167236328125, 74.65489959716797, 0.5887882709503174, 0.48953572, -0.1859601, 0.1797781
949, 3361745297, -122.47777557373047, 74.75779724121094, -0.34535789489746094, -0.6009501, -0.71590084, -0.35830212
950, 3361761964, -123.79719543457031, 74.96929931640625, -1.7546597719192505, -1.3515108, -0.6958459, -0.7361469
951, 3361778631, -123.73678588867188, 75.05297088623047, -1.684075951576233, 1.3121203, 1.4480689, 0.8724861
952, 3361795298, -122.29422760009766, 74.8125, -0.11156958341598511, 4.139158, 2.0660505, 1.8767548
953, 3361811965, -121.31985473632812, 74.73052215576172, 0.7281954884529114, 1.5624253, 1.0268502, 1.083005
954, 3361828632, -121.1751937866211, 74.75226593017578, 0.2819167673587799, -1.0941263, 0.2912081, -0.4508505
955, 3361845299, -121.50862884521484, 74.81690216064453, -0.4878779649734497, -1.6692384, -0.6332694, -2.068894
956, 3361861966, -122.06623077392578, 75.02178955078125, -1.1147656440734863, -2.8133552, -0.64282215, -1.9495325
957, 3361878633, -123.30316925048828, 75.26811218261719, -1.9654593467712402, -3.0862198, -0.7946766, -1.1308155
958, 3361895300, -124.3918685913086, 75.56271362304688, -2.128265142440796, -1.4052198, 0.11940397, 0.0051403046
959, 3361911967, -124.17936706542969, 75.60990905761719, -0.8072042465209961, 3.51467, 1.082521, 2.8590593
960, 3361928634, -123.48326110839844, 75.51790618896484, 0.42901670932769775, 5.106358, 0.41518113, 1.8324156
961, 3361945301, -123.12281036376953, 75.55311584472656, 0.419767290353775, 1.6128771, -0.3106725, -0.29917812
962, 3361961968, -122.80502319335938, 75.5184555053711, -0.09666559100151062, -1.4708917, -0.6415707, -1.2792854
963, 3361978635, -122.54804992675781, 75.46829986572266, -0.5349490642547607, -2.6399946, -1.0959402, -1.0096006
964, 3361995302, -122.5772933959961, 75.55044555664062, -0.888822615146637, -3.5351279, -0.5380777, -1.3480225
965, 3362011969, -122.86228942871094, 75.77130889892578, -1.0072546005249023, -4.104133, 0.06306139, -1.2610226
966, 3362028636, -122.64534759521484, 76.05350494384766, -0.17314879596233368, -1.4809841, 0.9914097, -0.20266056
967, 3362045303, -121.63597106933594, 76.11631774902344, 1.5330791473388672, 2.9848778, 0.7020772, 0.91049576
968, 3362061970, -120.56649017333984, 76.20781707763672, 2.861793041229248, 3.3619065, 0.4614738, 0.6824522
969, 3362078637, -119.67682647705078, 76.3881607055664, 3.4713449478149414, 0.48758468, 0.39706564, -0.14396477
970, 3362095304, -119.28096008300781, 76.52674865722656, 3.443786859512329, -1.1385764, -1.2290722, -0.41579056
971, 3362111971, -118.97769927978516, 76.66954040527344, 3.497591495513916, -1.1221007, -1.901502, -0.9709854
972, 3362128638, -118.23451232910156, 76.75414276123047, 4.471551418304443, -0.80152124, -1.0429249, -0.8897886
973, 3362145305, -117.18558502197266, 76.73872375488281, 6.321514129638672, -0.4631011, -0.5116811, 0.21713543
974, 3362161972, -116.38404846191406, 76.77227020263672, 8.10802173614502, 0.030568078, -0.46262378, 0.885355
975, 3362178639, -115.25847625732422, 76.92499542236328, 9.821601867675781, 0.117825635, 0.34766367, 0.66744804
976, 3362195306, -113.58353424072266, 77.00320434570312, 11.558446884155273, 0.31452218, 0.5433951, 1.0641336
977, 3362211973, -111.57752990722656, 76.96717834472656, 13.108028411865234, 0.7382622, 0.047100887, 1.816185
978, 3362228640, -108.8561019897461, 76.8147201538086, 15.261198997497559, 0.63184476, 0.9816611, 2.040656
979, 3362245307, -105.70159912109375, 76.50682067871094, 17.957275390625, 1.2065692, 1.5024223, 2.2136993
980, 3362261974, -102.7457275390625, 75.97505950927734, 20.47584342956543, 3.175642, 1.0905966, 1.530016
981, 3362278641, -100.34717559814453, 75.14759826660156, 22.3173885345459, 4.4825397, 0.93067557, 1.1191168
982, 3362295308, -98.8009262084961, 74.21007537841797, 23.100183486938477, 3.495453, 0.5498032, 0.9752655
983, 3362311975, -98.53568267822266, 73.35929870605469, 22.295129776000977, 1.7306683, -0.7930906, 0.6550741
984, 3362328642, -99.26849365234375, 72.55889129638672, 20.261857986450195, 0.15257631, -2.5062582, 0.63044643
985, 3362345309, -100.60576629638672, 71.67816925048828, 17.669631958007812, -0.98169047, -2.9868224, 1.5854855
986, 3362361976, -101.9672622680664, 70.69010162353516, 15.285850524902344, -2.50939, -2.3738458, 2.1256351
987, 3362378643, -103.76425170898438, 69.69908142089844, 13.06960678100586, -3.4552279, -1.9884262, 1.5615816
988, 3362395310, -106.01786041259766, 68.7896499633789, 10.831055641174316, -3.8065894, -1.9915036, 0.8502331
989, 3362411977, -108.63363647460938, 67.92656707763672, 8.499931335449219, -3.3561532, -1.7904499, 0.16601753
990, 3362428644, -111.42475891113281, 67.05960083007812, 6.1689958572387695, -2.6308079, -1.2388737, -0.18964005
991, 3362445311, -114.14307403564453, 66.1857681274414, 3.907409429550171, -2.1613002, -0.57626224, -0.22487068
992, 3362461978, -116.73645782470703, 65.32109832763672, 1.60354483127594, -1.7125993, -0.17385963, -0.24705505
993, 3362478645, -119.16732025146484, 64.49897003173828, -0.7919888496398926, -1.2427948, 0.052463856, -0.3804264
994, 3362495312, -121.4109878540039, 63.67412567138672, -3.3206093311309814, -0.9674462, 0.24100463, -0.4592781
995, 3362511979, -123.46714782714844, 62.77770233154297, -5.994661808013916, -1.1439844, 0.4506922, -0.26646137
996, 3362528646, -125.34374237060547, 61.82729721069336, -8.772963523864746, -1.5821004, 0.4640404, 0.32586956
997, 3362545313, -126.91239929199219, 60.92326736450195, -11.500218391418457, -1.8910028, 0.5412277, 0.677701
998, 3362561980, -128.1134490966797, 60.128047943115234, -14.032764434814453, -2.07315, 0.91357905, 0.5261059
999, 3362578647, -129.12393188476562, 59.41142272949219, -16.445709228515625, -1.9543115, 0.89968234, -0.26783848
1000, 3362595314, -130.0229949951172, 58.819610595703125, -18.703144073486328, -1.3871652, 0.72188383, -0.9601793
1001, 3362611981, -130.7963104248047, 58.422821044921875, -20.741987228393555, -0.6220541, 0.652878, -1.7895517
1002, 3362628648, -131.59275817871094, 58.160400390625, -22.762065887451172, 0.46309313, 0.48776138, -2.7452044
1003, 3362645315, -132.19895935058594, 57.967857360839844, -24.697742462158203, 1.3480453, 0.26581413, -3.286879
1004, 3362661982, -132.5224151611328, 57.7996826171875, -26.480880737304688, 1.7221199, 0.3606681, -3.5133076
1005, 3362678649, -132.59915161132812, 57.60115051269531, -28.13302230834961, 1.5681324, 0.8507073, -3.3921342
1006, 3362695316, -132.63726806640625, 57.393157958984375, -29.69316864013672, 1.0889069, 1.5545276, -2.809699
1007, 3362711983, -132.75912475585938, 57.21886444091797, -31.043691635131836, 0.57017756, 2.0854452, -2.2660527
1008, 3362728650, -133.01486206054688, 57.129798889160156, -32.06980514526367, 0.26245484, 2.43912, -1.8549967
1009, 3362745317, -133.41026306152344, 57.112205505371094, -32.76580047607422, 0.24930076, 2.4197733, -1.3356514
1010, 3362761984, -133.86697387695312, 57.181217193603516, -33.156898498535156, 0.45402142, 1.905519, -0.9764347
1011, 3362778651, -134.35365295410156, 57.37528991699219, -33.261051177978516, 0.5774985, 1.2306954, -0.5974932
1012, 3362795318, -134.90676879882812, 57.716880798339844, -33.11309051513672, 0.7456788, 0.42092094, -0.32204723
1013, 3362811985, -135.42710876464844, 58.13825607299805, -32.77128219604492, 1.0465457, -0.51128274, -0.032406807
1014, 3362828652, -135.842529296875, 58.590484619140625, -32.319557189941406, 1.5205289, -1.407014, 0.019295692
1015, 3362845319, -136.16441345214844, 59.023197174072266, -31.791709899902344, 1.7651238, -2.244942, -0.111231804
1016, 3362861986, -136.29620361328125, 59.372398376464844, -31.183605194091797, 1.7646514, -2.8027883, -0.22475815
1017, 3362878653, -136.26560974121094, 59.62630081176758, -30.597503662109375, 1.7992567, -2.8902347, -0.5942745
1018, 3362895320, -136.1269073486328, 59.7912712097168, -30.131872177124023, 1.5960331, -2.6874907, -0.6206579
1019, 3362911987, -135.85256958007812, 59.849246978759766, -29.882450103759766, 1.2198107, -2.339049, -0.6049881
1020, 3362928654, -135.4729461669922, 59.826316833496094, -29.885746002197266, 0.80823517, -1.9308037, -0.7036495
1021, 3362945321, -134.97686767578125, 59.73819351196289, -30.127418518066406, 0.39238414, -1.4132959, -0.73230934
1022, 3362961988, -134.45350646972656, 59.62019729614258, -30.558380126953125, -0.11162226, -1.0096622, -0.7283001
1023, 3362978655, -134.068359375, 59.53535842895508, -31.136255264282227, -0.47653735, -0.70696163, -0.77145576
1024, 3362995322, -133.8308563232422, 59.52751541137695, -31.783069610595703, -0.7630669, -0.3026682, -0.96230793
1025, 3363011989, -133.7273406982422, 59.57095718383789, -32.44264602661133, -0.804192, 0.20195892, -1.0611849
1026, 3363028656, -133.71078491210938, 59.64466857910156, -33.08080291748047, -0.63310516, 0.50148284, -1.0799999
1027, 3363045323, -133.75570678710938, 59.73778533935547, -33.71499252319336, -0.556883, 0.6777159, -0.9561472
1028, 3363061990, -133.8616180419922, 59.849456787109375, -34.35224533081055, -0.49722826, 0.8275422, -0.805563
1029, 3363078657, -133.9932861328125, 59.993438720703125, -34.933448791503906, -0.30015174, 0.9190582, -0.7577028
1030, 3363095324, -134.13633728027344, 60.1491584777832, -35.431522369384766, -0.08330194, 0.94024616, -0.6042166
1031, 3363111991, -134.2744903564453, 60.32688903808594, -35.849998474121094, 0.024557816, 0.6373235, -0.42209148
1032, 3363128658, -134.4009246826172, 60.541603088378906, -36.18436813354492, -0.12195537, 0.46084774, -0.26675606
1033, 3363145325, -134.48660278320312, 60.789642333984375, -36.382957458496094, -0.34147885, 0.36824408, -0.081809044
1034, 3363161992, -134.53794860839844, 61.074501037597656, -36.413082122802734, -0.5849283, 0.23639177, 0.026439667
1035, 3363178659, -134.5876007080078, 61.38164138793945, -36.33710479736328, -0.64973694, 0.023573464, 0.056230545
1036, 3363195326, -134.61378479003906, 61.67955780029297, -36.22294616699219, -0.45160547, -0.24718902, 0.07161808
1037, 3363211993, -134.57901000976562, 61.936790466308594, -36.13142776489258, -0.12791647, -0.4916259, 0.02087307
1038, 3363228660, -134.45309448242188, 62.13136291503906, -36.117977142333984, 0.23718345, -0.56224996, 0.014756203
1039, 3363245327, -134.1859130859375, 62.26454544067383, -36.170536041259766, 0.36438602, -0.36601207, 0.15325642
1040, 3363261994, -133.80438232421875, 62.36110305786133, -36.242366790771484, 0.19314559, 0.01004959, 0.32303333
1041, 3363278661, -133.35960388183594, 62.448822021484375, -36.27604675292969, -0.15217815, 0.27363384, 0.39335918
1042, 3363295328, -132.94488525390625, 62.54001235961914, -36.25442886352539, -0.6119083, 0.38834772, 0.4059763
1043, 3363311995, -132.63587951660156, 62.643455505371094, -36.19597244262695, -0.865294, 0.32119593, 0.28895283
1044, 3363328662, -132.51052856445312, 62.78474426269531, -36.18241500854492, -0.87157893, 0.23360613, 0.041653633
1045, 3363345329, -132.51942443847656, 62.933013916015625, -36.2288932800293, -0.60288775, 0.1362059, -0.11264992
1046, 3363361996, -132.51795959472656, 63.06306838989258, -36.26988983154297, -0.19498868, 0.1763743, -0.12707233
1047, 3363378663, -132.4566650390625, 63.16923141479492, -36.284828186035156, 0.12016235, 0.3356731, 0.008443832
1048, 3363395330, -132.33395385742188, 63.26735305786133, -36.27549743652344, 0.23063833, 0.44218552, 0.16898727
1049, 3363411997, -132.1388397216797, 63.376041412353516, -36.218231201171875, 0.246569, 0.45999748, 0.22484207
1050, 3363428664, -131.88819885253906, 63.498165130615234, -36.10852813720703, 0.23320247, 0.4342508, 0.16409683
1051, 3363445331, -131.5751190185547, 63.62399673461914, -35.966827392578125, 0.15085337, 0.48166192, 0.1130085
1052, 3363461998, -131.25730895996094, 63.74955749511719, -35.84135437011719, 0.012786729, 0.6612524, 0.115392685
1053, 3363478665, -130.98703002929688, 63.873226165771484, -35.72629928588867, -0.0909387, 0.7955524, 0.14495373
1054, 3363495332, -130.78518676757812, 64.01658630371094, -35.600746154785156, -0.069084056, 0.76351917, 0.09001827
1055, 3363511999, -130.63397216796875, 64.18414306640625, -35.44873046875, 0.048219122, 0.64662457, 0.013756752
1056, 3363528666, -130.4650115966797, 64.34313201904297, -35.23086929321289, 0.08020785, 0.5607073, 0.066493034
1057, 3363545333, -130.2615966796875, 64.48948669433594, -34.95310974121094, 0.10011908, 0.5301608, 0.1066761
1058, 3363562000, -130.02171325683594, 64.63357543945312, -34.64230728149414, 0.09421764, 0.5060789, 0.18828964
1059, 3363578667, -129.71307373046875, 64.76969146728516, -34.29964828491211, 0.0022416115, 0.47654235, 0.29906082
1060, 3363595334, -129.38681030273438, 64.894287109375, -33.971004486083984, -0.024062064, 0.57002956, 0.5211687
