sep=,
DeviceTag:,Xsens_2,,,,,,,,,,,,,,,,,
FirmwareVersion:,2.2.1,,,,,,,,,,,,,,,,,
AppVersion:,2022.0.1,,,,,,,,,,,,,,,,,
SyncStatus:,Synced,,,,,,,,,,,,,,,,,
OutputRate:,60Hz,,,,,,,,,,,,,,,,,
FilterProfile:,General,,,,,,,,,,,,,,,,,
Measurement Mode:,Sensor fusion Mode - Complete (Euler),,,,,,,,,,,,,,,,,
StartTime:,2023-05-17 15:23:43.748 +0200,,,,,,,,,,,,,,,,,
© Xsens Technologies B. V. 2005-2023,,,,,,,,,,,,,,,,,,,

PacketCounter,SampleTimeFine,Euler_X,Euler_Y,Euler_Z,FreeAcc_X,FreeAcc_Y,FreeAcc_Z
1, 3345944981, -70.99117279052734, 44.688575744628906, -174.08250427246094, 4.3021846, 5.6829643, 2.0809326
2, 3345961648, -69.92681121826172, 45.603885650634766, -172.00192260742188, 3.592992, 4.877043, 1.0868931
3, 3345978315, -68.62115478515625, 46.54236602783203, -169.95318603515625, 3.1526084, 3.936998, 0.011385918
4, 3345994982, -67.10546112060547, 47.535247802734375, -167.9436492919922, 2.4818163, 3.0702798, -1.1052704
5, 3346011649, -65.52873992919922, 48.58482360839844, -166.10287475585938, 1.3446991, 2.5200434, -1.8120508
6, 3346028316, -64.06568908691406, 49.662906646728516, -164.52261352539062, 0.33068106, 2.0603287, -2.2226324
7, 3346044983, -62.858341217041016, 50.778053283691406, -163.2240753173828, -0.26733926, 1.4407507, -2.4756756
8, 3346061650, -61.96857833862305, 51.96872329711914, -162.16690063476562, -0.4550298, 0.69243157, -2.4865804
9, 3346078317, -61.34684753417969, 53.27064895629883, -161.34555053710938, -0.74496096, 0.24724858, -2.0867524
10, 3346094984, -60.84481430053711, 54.62971878051758, -160.78656005859375, -1.2219502, 0.076458864, -1.4870214
11, 3346111651, -60.34111022949219, 56.02739334106445, -160.50784301757812, -1.6410618, -7.834129E-5, -0.86534786
12, 3346128318, -59.773799896240234, 57.419830322265625, -160.43724060058594, -1.6853821, -0.13128279, -0.35756683
13, 3346144985, -59.02497863769531, 58.769142150878906, -160.4183807373047, -1.41275, -0.28687212, 0.13900852
16, 3346194986, -55.56413269042969, 62.19683837890625, -159.944091796875, -0.36143476, -0.52801424, 0.15079689
20, 3346261654, -53.02710723876953, 65.34907531738281, -159.1927032470703, -0.17699902, -0.5635041, 0.3167658
23, 3346311655, -51.668800354003906, 66.44178771972656, -158.43287658691406, -0.7729769, -0.09501368, 0.6089926
26, 3346361656, -50.014183044433594, 66.57703399658203, -157.3861541748047, 3.2543487E-4, 0.021462273, -0.3272686
32, 3346461658, -47.34493637084961, 66.14610290527344, -154.1185760498047, 0.5718913, 0.6287236, -0.9195585
35, 3346511659, -47.050472259521484, 66.41443634033203, -152.68991088867188, 0.77832466, 0.8431281, 0.022807121
38, 3346561660, -47.48966979980469, 67.09797668457031, -152.43817138671875, -0.013382615, 1.742818, -0.28146744
42, 3346628328, -48.87034606933594, 68.10127258300781, -153.5650634765625, 0.45650688, 0.16683443, 0.20923519
45, 3346678329, -50.567630767822266, 68.31549072265625, -154.0464324951172, 0.07811264, 0.48214003, -0.11548042
48, 3346728330, -50.994972229003906, 68.34053039550781, -153.64535522460938, 0.9501254, -0.15859407, -0.63438416
51, 3346778331, -52.13561248779297, 68.3997573852539, -153.85472106933594, 0.65523005, 0.009011037, -0.1369009
54, 3346828332, -52.72929000854492, 68.20843505859375, -154.01513671875, 0.8310006, -0.18642321, -0.016500473
61, 3346945001, -53.270606994628906, 67.3445053100586, -153.83956909179688, -0.025163982, -0.05782593, 0.7809744
64, 3346995002, -53.67485809326172, 66.19435119628906, -154.5757293701172, -0.2118049, 0.2562537, 0.40258408
67, 3347045003, -53.23845672607422, 64.77399444580078, -154.7407989501953, 0.3571004, 0.17019248, -0.15479565
70, 3347095004, -53.795257568359375, 63.35480880737305, -155.28811645507812, -0.21265715, 0.4243874, -0.01401329
73, 3347145005, -54.03221893310547, 62.10334014892578, -156.0855255126953, -0.025922362, 0.024508642, -0.2421732
83, 3347311675, -56.208831787109375, 59.11103820800781, -159.50038146972656, 0.09868723, -0.24022089, 0.2425499
86, 3347361676, -57.43174362182617, 58.7630500793457, -161.24720764160156, 0.34567598, 0.047686823, 0.9911804
89, 3347411677, -58.27791213989258, 58.82048416137695, -163.7198486328125, 0.11025693, 0.30281234, 0.75461006
92, 3347461678, -59.91139602661133, 59.28350067138672, -167.09072875976562, -0.13555077, -0.38884002, 0.38942432
95, 3347511679, -63.07274627685547, 59.60960388183594, -169.83096313476562, -1.7589583, 0.5156248, -0.69977474
102, 3347628348, -64.0114974975586, 61.4276008605957, -168.06837463378906, -0.5258252, 1.1305726, -1.0486412
105, 3347678349, -65.39767456054688, 60.933101654052734, -167.86602783203125, -0.78855217, 0.6026002, -0.029009819
108, 3347728350, -63.80542755126953, 60.05786895751953, -166.400634765625, -0.25105935, -0.7121292, 0.7220297
111, 3347778351, -61.09370040893555, 59.012718200683594, -164.98641967773438, 0.40740377, -0.9637026, 0.7677994
114, 3347828352, -58.265995025634766, 57.894630432128906, -163.61276245117188, 0.7821123, -0.13370131, 0.25349236
117, 3347878353, -55.845947265625, 56.54057693481445, -161.95751953125, 0.42107728, 0.57443064, -0.15173054
120, 3347928354, -54.486244201660156, 55.014610290527344, -160.64988708496094, -0.6881974, 1.0818202, -0.1792202
124, 3347995022, -51.55533981323242, 53.00331497192383, -158.62393188476562, -0.10879448, 0.36923626, -0.10722065
127, 3348045023, -49.274810791015625, 51.50030517578125, -156.97906494140625, 0.24118277, 0.13978702, -0.044330597
130, 3348095024, -47.887481689453125, 50.072486877441406, -155.2148895263672, 0.23687255, 0.21390626, 0.47656536
136, 3348195026, -44.69013214111328, 48.80738830566406, -153.01075744628906, 0.09331431, -0.92020303, 0.12149525
139, 3348245027, -43.90000534057617, 48.7779541015625, -152.83447265625, 0.49681902, -1.0202127, -0.10346317
142, 3348295028, -43.72962951660156, 48.84844970703125, -153.12933349609375, 0.45589188, -0.56200826, -0.23678398
149, 3348411697, -45.59589385986328, 50.32064437866211, -155.16213989257812, -0.40962303, -0.42164603, 0.35276031
152, 3348461698, -46.622283935546875, 51.26906204223633, -156.14442443847656, -0.93908006, 0.299588, -0.17014408
155, 3348511699, -47.80458450317383, 52.25606155395508, -157.2104034423828, -0.35776478, 0.31726915, -0.025252342
158, 3348561700, -48.80657958984375, 53.31995391845703, -157.8762664794922, 0.19022495, -0.12841244, -0.10905552
161, 3348611701, -50.19169235229492, 54.44857406616211, -158.5621795654297, -0.1309834, 0.008064236, -0.13751793
164, 3348661702, -51.54648971557617, 55.450225830078125, -159.36727905273438, 0.01623777, -0.13697757, -0.05966854
168, 3348728370, -53.202720642089844, 56.62979507446289, -160.35189819335938, 0.04467253, -0.12547044, -0.058906555
174, 3348828372, -56.639827728271484, 58.4521369934082, -161.89581298828125, -0.07849228, 0.1563577, -0.065924644
180, 3348928374, -59.334556579589844, 60.39754104614258, -163.40118408203125, 0.0041776807, 0.15215644, -0.16191578
183, 3348978375, -60.1663703918457, 61.21110916137695, -163.81495666503906, 0.22771075, 0.13406776, -0.32885838
187, 3349045043, -61.389495849609375, 62.05470657348633, -164.45675659179688, -0.012897592, 0.31785566, -0.27011204
190, 3349095044, -62.55049133300781, 62.7030143737793, -165.12339782714844, -0.30953416, 0.24165192, 0.12099171
193, 3349145045, -63.46012878417969, 63.26198959350586, -165.79855346679688, -0.15786251, 0.23191582, -0.20050716
196, 3349195046, -63.999202728271484, 63.7261848449707, -166.44049072265625, 0.120706834, 0.26949626, -0.43986225
199, 3349245047, -64.04646301269531, 64.02112579345703, -166.8997039794922, 0.31281152, 0.17769861, -0.41479492
202, 3349295048, -63.333011627197266, 64.1710205078125, -166.85836791992188, 0.572665, -0.05713874, -0.2794733
205, 3349345049, -62.78877639770508, 64.0806655883789, -166.54969787597656, 0.2339832, 0.09223173, -0.27555847
209, 3349411717, -61.9355354309082, 64.26006317138672, -166.1800994873047, 0.03669345, 0.17632657, 0.03644657
212, 3349461718, -61.5391845703125, 64.49830627441406, -165.97784423828125, 0.15303731, 0.1204423, -0.30051804
215, 3349511719, -61.77398681640625, 64.87520599365234, -166.08251953125, -0.15770426, 0.09894617, 0.21971607
218, 3349561720, -62.80257797241211, 65.24605560302734, -166.63087463378906, -0.16928536, 0.05481834, -0.20199299
221, 3349611721, -63.764625549316406, 65.6990737915039, -167.26907348632812, -0.68311036, -0.21176846, 0.20582199
224, 3349661722, -64.39901733398438, 66.18894958496094, -167.70828247070312, -0.086636975, -0.21878566, -0.2755499
227, 3349711723, -65.6014175415039, 66.70469665527344, -168.25636291503906, 0.05588383, -0.08143069, -0.15419197
231, 3349778391, -66.74365997314453, 67.1913833618164, -168.56072998046875, -0.017192394, 0.22738163, -0.32134724
234, 3349828392, -67.12124633789062, 67.45964050292969, -168.41677856445312, 0.30372864, 0.19595581, -0.16215324
240, 3349928394, -67.42931365966797, 67.79596710205078, -167.82472229003906, 0.10348784, 0.4092604, 0.18537521
243, 3349978395, -67.14022064208984, 67.99654388427734, -167.4237518310547, -0.023713384, 0.32294413, -0.11253452
246, 3350028396, -66.6703109741211, 68.27783966064453, -167.1466064453125, 0.1929051, 0.070866905, -0.2992096
250, 3350095064, -66.47319030761719, 68.60491180419922, -166.93785095214844, 0.021209145, -0.016510343, -0.33280945
253, 3350145065, -66.32051849365234, 68.78129577636719, -166.68797302246094, -0.074249886, 0.09430201, -0.070409775
256, 3350195066, -66.24512481689453, 68.97723388671875, -166.45823669433594, -0.023425946, -0.010987114, 0.16077042
259, 3350245067, -66.19400787353516, 69.09058380126953, -166.30860900878906, -0.25237182, 0.022614483, 0.33092976
262, 3350295068, -65.56741333007812, 69.1513900756836, -166.0361785888672, -0.1153338, 3.0084845E-4, -0.20073032
265, 3350345069, -65.28524017333984, 69.18087005615234, -165.9409637451172, -0.13160376, 0.0058087665, -0.13406277
268, 3350395070, -64.61320495605469, 69.18414306640625, -165.54071044921875, 0.12449515, 0.06542951, -0.18757248
275, 3350511739, -63.832359313964844, 69.23491668701172, -164.93873596191406, 0.026355084, 0.047983315, -0.07384777
278, 3350561740, -63.728370666503906, 69.28339385986328, -164.88430786132812, 0.10756986, -0.010801822, -0.10300636
281, 3350611741, -63.75646209716797, 69.29219818115234, -164.98138427734375, 0.050606463, 0.07745428, -0.14898968
284, 3350661742, -63.876373291015625, 69.28499603271484, -165.17462158203125, 0.09932715, 0.045279924, -0.021716118
287, 3350711743, -63.99341583251953, 69.25157165527344, -165.29522705078125, 0.053085893, 0.08217186, -0.06437588
294, 3350828412, -64.263671875, 69.20648193359375, -166.53384399414062, -0.2186587, 0.16676727, 0.05601597
297, 3350878413, -63.891719818115234, 69.12532806396484, -167.5035858154297, -0.11132063, 0.4473318, 0.52100945
300, 3350928414, -62.68864440917969, 68.87873840332031, -168.7847137451172, -0.09669338, 0.4851208, -0.16877651
303, 3350978415, -60.6120491027832, 68.25281524658203, -169.5052490234375, 0.6043263, 0.65577704, 0.1894579
306, 3351028416, -58.63740539550781, 67.18339538574219, -169.20941162109375, 0.67729944, 0.51717544, 0.2872305
313, 3351145085, -57.93222427368164, 63.63948059082031, -169.3040313720703, -0.0499262, -0.15330441, 0.15587997
316, 3351195086, -57.2160530090332, 61.82429122924805, -169.3885955810547, 0.3721123, -0.27968556, -0.16257763
319, 3351245087, -56.96083450317383, 60.18690490722656, -169.5772705078125, 0.53008187, -0.12376817, -0.6804981
322, 3351295088, -57.08811950683594, 59.13836669921875, -169.95823669433594, 0.1413991, 0.12731633, -0.8515835
325, 3351345089, -57.386375427246094, 58.68620300292969, -171.1026611328125, 0.02606664, 0.30721924, -0.53410435
328, 3351395090, -57.32939147949219, 58.463565826416016, -172.8943634033203, -0.04505038, 0.7880193, -0.46558762
331, 3351445091, -56.94169235229492, 58.25884246826172, -175.19517517089844, 0.1365349, 0.643337, -0.43570042
335, 3351511759, -55.65669631958008, 58.26682662963867, -178.00665283203125, 0.3197355, 0.30933043, -0.8545208
338, 3351561760, -55.247230529785156, 58.83736801147461, 179.96705627441406, 0.12863663, 0.21385865, -0.92440987
341, 3351611761, -55.289459228515625, 60.332359313964844, 177.98780822753906, 0.30797136, -0.555661, -0.44839096
347, 3351711763, -55.411441802978516, 63.22477340698242, 173.70582580566406, -0.10692709, 0.4181098, 0.14195156
350, 3351761764, -55.84151840209961, 64.54998779296875, 170.6466827392578, 0.7065143, 0.2549086, -0.53880405
353, 3351811765, -58.4559440612793, 66.85591125488281, 166.21788024902344, 1.2222654, 0.40634006, -0.8513403
357, 3351878433, -65.80561065673828, 71.36637115478516, 157.19232177734375, 1.0206422, -0.6533931, -0.0230999
363, 3351978435, -88.48713684082031, 77.2077865600586, 134.48936462402344, -0.550918, -0.7710385, 0.69170094
366, 3352028436, -102.93220520019531, 79.12943267822266, 119.91458892822266, -1.3364848, -0.69825816, 0.051083565
369, 3352078437, -120.22653198242188, 80.1316146850586, 102.8042984008789, -1.7757617, -0.71774447, 0.001707077
372, 3352128438, -136.05557250976562, 80.22539520263672, 87.41496276855469, -1.9804415, -0.1605841, 0.13346767
376, 3352195106, -147.53109741210938, 80.10842895507812, 75.81423950195312, -1.8281469, 0.1144003, 0.5671902
379, 3352245107, -146.68959045410156, 80.94336700439453, 76.13212585449219, -1.2006068, 0.16435981, 0.20045757
382, 3352295108, -140.3370361328125, 82.1080551147461, 82.41592407226562, -1.0937892, 0.31643847, -0.17819214
385, 3352345109, -130.80938720703125, 82.95118713378906, 92.04960632324219, -0.6310421, 0.38440517, -0.37681007
388, 3352395110, -118.71887969970703, 83.38322448730469, 104.31415557861328, -0.018950658, 0.33546656, -0.41904545
391, 3352445111, -106.20693969726562, 83.5334701538086, 116.88326263427734, 0.16869226, 0.2544143, -0.3246088
394, 3352495112, -93.42337799072266, 83.4909439086914, 129.65335083007812, 0.4928202, 0.045687724, -0.17907715
398, 3352561780, -82.39766693115234, 83.49651336669922, 140.82472229003906, 0.07822584, 0.14023739, -0.1792345
404, 3352661782, -79.44646453857422, 83.65383911132812, 144.758544921875, 0.22791125, 0.51320684, -0.24122047
407, 3352711783, -80.55560302734375, 83.7654037475586, 144.25314331054688, 0.17889117, 0.43206853, -0.27685928
410, 3352761784, -82.913330078125, 83.92694854736328, 142.3389892578125, 0.030928103, 0.1848005, -0.38585758
416, 3352861786, -95.00340270996094, 84.22718048095703, 131.3363494873047, -0.071685575, 0.09447144, -0.11418724
420, 3352928454, -102.82784271240234, 84.14315032958984, 123.95655822753906, -2.8978454E-4, -0.09633174, -0.048975945
423, 3352978455, -107.4120864868164, 84.15608978271484, 119.36478424072266, -0.005662924, 0.029504605, -0.27008915
426, 3353028456, -109.1000747680664, 84.15728759765625, 117.49140930175781, -0.592165, 0.05197626, 0.25863743
429, 3353078457, -104.04462432861328, 83.99593353271484, 121.9686050415039, -0.20526189, 0.14974809, 0.05206871
432, 3353128458, -95.7579574584961, 83.66315460205078, 129.81268310546875, -0.034752242, 0.054926746, -0.31735897
435, 3353178459, -90.05380249023438, 83.42967987060547, 135.53329467773438, 0.13980785, 0.024404038, -0.60621834
439, 3353245127, -89.19956970214844, 83.788330078125, 137.23196411132812, -0.17467023, 0.08939512, -0.15951443
445, 3353345129, -89.37063598632812, 84.3646240234375, 137.65440368652344, -0.019909529, 0.33024475, -0.07782173
448, 3353395130, -88.13404846191406, 84.34196472167969, 138.96226501464844, -0.027818982, 0.07634297, -0.16832733
454, 3353495132, -88.28379821777344, 84.28728485107422, 138.93858337402344, -0.09802216, 0.07956279, -0.20062637
457, 3353545133, -87.04191589355469, 84.31493377685547, 139.73846435546875, -0.100602396, 0.022604536, -0.15459633
461, 3353611801, -85.75302124023438, 84.32522583007812, 140.5376434326172, -0.047829986, -0.0031119708, -0.15947437
464, 3353661802, -86.25540161132812, 84.27742004394531, 139.9706268310547, -0.19478205, 0.12542608, -0.082297325
467, 3353711803, -86.37287902832031, 84.23876953125, 139.77078247070312, -0.20198552, 0.18457633, -0.17232132
470, 3353761804, -86.55933380126953, 84.15340423583984, 139.57540893554688, -0.10553522, 0.062778644, -0.22153568
473, 3353811805, -86.851806640625, 84.10335540771484, 139.48944091796875, -0.056277264, 0.051398594, -0.17219448
479, 3353911807, -88.13050842285156, 84.00642395019531, 138.583984375, 0.005360958, 0.049455594, -0.23164272
486, 3354028476, -87.65692138671875, 84.10688018798828, 138.8316650390625, -0.1375292, 0.09498708, -0.15709496
489, 3354078477, -87.2590560913086, 84.1443862915039, 139.09303283691406, -0.11548356, 0.087881945, -0.16814327
495, 3354178479, -86.36370849609375, 84.15387725830078, 140.01571655273438, 0.02031906, 0.021263905, -0.30391693
498, 3354228480, -83.01799011230469, 84.30071258544922, 142.98049926757812, 0.17244679, 0.15290275, -0.32748508
501, 3354278481, -78.36807250976562, 84.63768768310547, 146.78207397460938, 0.12269688, 0.030556008, -0.36039257
505, 3354345149, -76.79759979248047, 85.31926727294922, 147.83242797851562, -0.23027875, -0.024399009, 0.052840233
508, 3354395150, -81.0465316772461, 85.57978057861328, 144.13658142089844, -0.42224765, 0.19279657, 0.042092323
511, 3354445151, -85.93864440917969, 85.3755111694336, 140.5614471435547, -0.1710362, 0.14085999, -0.15839386
514, 3354495152, -89.83523559570312, 84.98839569091797, 138.29344177246094, 0.13978389, 0.15732495, -0.29235077
517, 3354545153, -92.32322692871094, 84.85558319091797, 136.7932586669922, 0.049357135, -0.016829185, -0.5221529
520, 3354595154, -94.09257507324219, 85.11741638183594, 135.35108947753906, -0.28725293, -0.18576922, -0.25037193
524, 3354661822, -90.8720703125, 85.24107360839844, 138.81556701660156, 0.042185836, 0.11028777, 0.031757355
533, 3354811825, -80.79711151123047, 84.4765396118164, 146.20248413085938, 0.3332063, -0.25014228, -0.20515728
536, 3354861826, -83.70950317382812, 84.94661712646484, 142.79754638671875, -0.43783283, -0.13813491, -0.39055157
539, 3354911827, -90.1839599609375, 85.23856353759766, 136.552001953125, -0.6099553, 0.106266774, 0.063316345
542, 3354961828, -93.19213104248047, 85.19050598144531, 133.28359985351562, -0.33946678, 0.019036822, -0.015025139
546, 3355028496, -90.19698333740234, 84.81715393066406, 136.47445678710938, -0.13325685, -0.028607087, -0.22088718
549, 3355078497, -86.5344009399414, 84.50923919677734, 140.60374450683594, 0.00413851, 0.11707888, -0.36189556
552, 3355128498, -84.10244750976562, 84.38358306884766, 143.21221923828125, 0.15022697, 0.28447276, -0.25778294
555, 3355178499, -81.88912963867188, 84.341064453125, 144.99110412597656, 0.20478083, 0.28138414, -0.2355032
558, 3355228500, -78.5323257446289, 84.3218002319336, 147.53057861328125, 0.1533405, -0.016217317, -0.34879112
561, 3355278501, -75.09017181396484, 84.52940368652344, 150.2184295654297, -0.15245417, -0.20458084, -0.19504833
568, 3355395170, -74.04801940917969, 85.50699615478516, 150.80856323242188, -0.44383705, 0.24458955, 0.22626781
574, 3355495172, -73.94869995117188, 85.16471099853516, 152.16519165039062, -0.018442612, 0.16097358, -0.2980852
577, 3355545173, -73.49231719970703, 84.98050689697266, 153.0907745361328, 0.11370864, -0.0013484537, -0.29515743
580, 3355595174, -72.75080108642578, 84.97523498535156, 153.9412841796875, 0.09779921, 0.044822954, -0.24940968
583, 3355645175, -71.28374481201172, 85.16487121582031, 155.03298950195312, -0.05962789, 0.025096482, -0.09646225
587, 3355711843, -70.03205108642578, 85.4332275390625, 155.4468536376953, -0.19165644, 0.07289082, -0.0828619
590, 3355761844, -69.9677505493164, 85.50839233398438, 155.04443359375, -0.19561122, 0.032747332, -0.11351395
596, 3355861846, -72.35110473632812, 85.49402618408203, 153.1024169921875, -0.06313062, 0.05779162, -0.16711044
599, 3355911847, -74.4428482055664, 85.44723510742188, 151.55735778808594, 0.0023054802, 0.06950236, -0.1925087
605, 3356011849, -79.36424255371094, 85.35084533691406, 147.47422790527344, 0.0343963, 0.07421781, -0.14801311
609, 3356078517, -82.65721893310547, 85.29147338867188, 144.4943389892578, -0.076290004, 0.10026992, -0.19231033
612, 3356128518, -84.22872161865234, 85.25856018066406, 142.9330596923828, -0.0996252, 0.064513214, -0.16618443
615, 3356178519, -85.67337799072266, 85.24239349365234, 141.49388122558594, -0.13147154, 6.6182186E-4, -0.11279869
618, 3356228520, -87.19342041015625, 85.14926147460938, 139.9776153564453, -0.24831384, 0.054663222, -0.006512642
621, 3356278521, -86.3477783203125, 84.98319244384766, 140.6767120361328, -0.1731955, 0.042350676, -0.09029102
624, 3356328522, -84.06624603271484, 84.70309448242188, 142.73040771484375, -0.16275878, -0.013817012, -0.3412676
628, 3356395190, -82.40863800048828, 84.25788879394531, 144.27345275878906, 0.021812517, -1.0236893E-4, -0.33119583
631, 3356445191, -81.49998474121094, 83.94952392578125, 145.16465759277344, 0.20812029, -0.021835875, -0.21897793
634, 3356495192, -81.02597045898438, 83.76262664794922, 145.69973754882812, 0.39382738, 0.018979268, -0.29776287
643, 3356645195, -81.65137481689453, 83.94078063964844, 144.30758666992188, -0.122860156, -0.053384505, -0.08341789
646, 3356695196, -82.22653198242188, 83.99739837646484, 143.71678161621094, -0.3075316, 0.020245804, -0.035269737
650, 3356761864, -82.59807586669922, 83.93751525878906, 143.3931121826172, -0.19813429, -0.0481942, -0.14949036
653, 3356811865, -82.87071228027344, 83.80901336669922, 143.38995361328125, -0.11027839, 0.035711225, -0.11307812
656, 3356861866, -82.5193099975586, 83.711669921875, 143.77975463867188, 0.005158791, -0.014807398, -0.22356129
659, 3356911867, -82.25590515136719, 83.70960235595703, 144.0585479736328, 0.060407672, 0.05220961, -0.25502205
665, 3357011869, -81.88141632080078, 83.91668701171875, 144.13328552246094, -0.014884119, 0.018980833, -0.16735172
668, 3357061870, -81.96241760253906, 83.97982788085938, 143.96063232421875, -0.07833543, 0.07593328, -0.13697243
672, 3357128538, -81.47383117675781, 84.02073669433594, 144.1728973388672, -0.087634794, 0.06375975, -0.1770525
675, 3357178539, -80.84835052490234, 84.04557037353516, 144.60736083984375, -0.05809359, -0.019080406, -0.21194649
681, 3357278541, -80.67533874511719, 84.1047592163086, 144.8600311279297, -0.06164437, -0.001824648, -0.13356876
684, 3357328542, -80.31775665283203, 84.15524291992188, 145.1747283935547, -0.09087238, 0.039540336, -0.0873127
687, 3357378543, -79.61140441894531, 84.2042465209961, 145.72946166992188, -0.033798233, -0.0172533, -0.1572609
690, 3357428544, -79.10189819335938, 84.25161743164062, 146.2341766357422, -0.063335694, 0.052733857, -0.22697163
694, 3357495212, -78.78622436523438, 84.31380462646484, 146.5036163330078, 0.0027208233, 0.02436973, -0.23839188
697, 3357545213, -78.78292846679688, 84.36834716796875, 146.46864318847656, -0.011563163, 0.04000815, -0.17666912
700, 3357595214, -78.88192749023438, 84.42507934570312, 146.248046875, -0.021961099, 0.0050386526, -0.11833
703, 3357645215, -78.88554382324219, 84.51166534423828, 146.06253051757812, 0.008292498, -0.005820724, -0.27498817
706, 3357695216, -78.88916015625, 84.59002685546875, 146.020263671875, -0.1610855, 0.008725611, -0.23700905
709, 3357745217, -79.48957824707031, 84.65819549560547, 145.52352905273438, -0.116892636, 0.18552212, -0.30711746
716, 3357861886, -82.8609848022461, 84.08898162841797, 142.17080688476562, -0.49786377, 0.35546607, 0.13294125
719, 3357911887, -81.9725570678711, 83.80919647216797, 142.14395141601562, -0.3122918, 0.44043553, 0.16270065
722, 3357961888, -79.55756378173828, 83.13912963867188, 144.0546417236328, -1.6622335, 1.65436, 0.6305628
725, 3358011889, -70.71439361572266, 81.16620635986328, 151.56060791015625, -2.5929654, 0.24789822, 1.2563276
728, 3358061890, -63.211856842041016, 77.2249755859375, 158.99652099609375, -3.1187463, 0.27044737, 1.350749
731, 3358111891, -58.58696746826172, 71.27516174316406, 163.89080810546875, -1.7402294, 0.70289415, 2.8423376
735, 3358178559, -53.72159957885742, 60.52485275268555, 167.78860473632812, 2.2600982, 1.100453, 1.594039
738, 3358228560, -50.85152053833008, 52.10494613647461, 167.74288940429688, 2.0618255, -0.9808554, 0.6051874
741, 3358278561, -45.50606918334961, 44.97673034667969, 171.76016235351562, 3.8151476, -4.6917157, -2.2535295
744, 3358328562, -44.04218673706055, 39.08297348022461, 176.038818359375, 1.9462371, -2.122766, -3.4848952
747, 3358378563, -45.09197235107422, 35.33087158203125, 178.6847686767578, 0.7109016, 0.23931658, -3.6914692
750, 3358428564, -44.2923583984375, 33.853729248046875, -179.32110595703125, 0.5509437, -1.1436932, -1.4204292
754, 3358495232, -40.98523712158203, 32.44501876831055, -174.2740936279297, -1.2804633, 0.9783218, 1.8931856
757, 3358545233, -35.472389221191406, 29.80111312866211, -170.90838623046875, -1.0571766, 1.3968624, 1.8014317
760, 3358595234, -33.21846008300781, 26.684568405151367, -170.22215270996094, -0.706701, -0.30609852, -0.3928671
763, 3358645235, -31.972549438476562, 23.871671676635742, -168.10122680664062, 0.7376246, -0.8779612, -1.3941927
769, 3358745237, -32.22615051269531, 21.55161476135254, -163.12669372558594, -3.2486465, 1.8100052, -2.863729
772, 3358795238, -33.531982421875, 22.89759635925293, -164.61981201171875, 2.5488863, -0.89224964, -0.07420254
776, 3358861906, -34.38920974731445, 24.815507888793945, -164.50840759277344, -0.14458193, 0.90343666, 0.53367424
782, 3358961908, -34.73023223876953, 28.806194305419922, -166.86744689941406, -0.63332266, 0.8368478, -1.5260525
785, 3359011909, -36.58147430419922, 32.38499069213867, -169.63658142089844, 0.022448076, 0.14490135, -1.597784
788, 3359061910, -39.250858306884766, 37.33697509765625, -172.5390625, 0.39409927, -0.25069973, -1.655879
791, 3359111911, -42.79433059692383, 44.24106216430664, -175.71080017089844, 0.50705403, 0.79501915, -1.6733952
794, 3359161912, -48.31781005859375, 53.16555404663086, 178.94422912597656, 1.4952043, 2.2446375, 0.35141087
798, 3359228580, -60.38534927368164, 64.72589874267578, 165.2689208984375, 1.9413155, 1.6989695, 3.6133575
807, 3359378583, -131.8714141845703, 70.60115814208984, 90.61796569824219, 2.2792604, -0.65066445, 2.2200565
810, 3359428584, -150.01898193359375, 65.61233520507812, 71.80956268310547, -0.025160741, -1.5027195, 1.9663582
813, 3359478585, -159.3986358642578, 60.03109359741211, 60.71717071533203, -1.4156835, -2.3759549, 1.0063639
817, 3359545253, -165.48463439941406, 52.72498321533203, 51.46681594848633, -0.7663068, -2.8771515, 0.33844185
823, 3359645255, -169.2913360595703, 44.07291793823242, 42.9886474609375, -1.1337703, -1.6271446, 0.14376354
826, 3359695256, -167.69993591308594, 42.48879623413086, 40.97740936279297, -0.1675357, -1.4797878, 0.4640522
829, 3359745257, -164.6014862060547, 42.885704040527344, 40.24162292480469, -1.7224512, -1.9800476, 0.15967083
832, 3359795258, -159.65980529785156, 45.753902435302734, 42.10725021362305, -1.471987, 0.18367898, -3.0367231
835, 3359845259, -155.26332092285156, 47.08761978149414, 43.53532409667969, -3.6663446, 1.2649026, -4.2184057
839, 3359911927, -152.56570434570312, 46.144161224365234, 42.331520080566406, -3.7361314, 1.1593859, -2.7170725
842, 3359961928, -152.712158203125, 45.93718338012695, 42.169227600097656, -0.36821383, 1.9846587, -0.6016817
845, 3360011929, -153.91615295410156, 46.68014144897461, 42.18709945678711, 0.23329182, 2.1307132, 0.20098019
848, 3360061930, -153.85386657714844, 47.71848678588867, 42.70463562011719, 0.47215465, 1.8238542, 0.2167387
851, 3360111931, -151.91236877441406, 48.54753494262695, 43.926177978515625, 0.8500777, 1.8483907, -0.54796124
857, 3360211933, -147.92137145996094, 51.3936882019043, 48.46733856201172, 0.31329134, 2.2867136, -2.5056758
864, 3360328602, -146.94964599609375, 56.783504486083984, 54.337425231933594, -2.8031368, 2.858168, -3.6380086
867, 3360378603, -149.77757263183594, 59.88616943359375, 55.56893539428711, -3.305864, 0.9015457, -3.835672
870, 3360428604, -152.89744567871094, 63.652587890625, 57.821964263916016, -3.0470135, -2.2054908, -4.4527993
876, 3360528606, -157.40963745117188, 71.93006134033203, 70.11123657226562, -1.6856259, -3.4441836, 3.4893246
879, 3360578607, -149.7012176513672, 75.30353546142578, 79.36688232421875, 2.1248808, -1.5965046, 2.8844957
883, 3360645275, -139.34683227539062, 78.47443389892578, 92.24323272705078, 2.2084918, -1.4459803, 1.2468338
886, 3360695276, -136.22805786132812, 79.42780303955078, 96.92684173583984, 3.26907, -0.8184774, 2.9352627
889, 3360745277, -138.39654541015625, 80.18862915039062, 95.80585479736328, 3.293345, 0.028777517, 0.68905354
892, 3360795278, -142.96044921875, 81.46705627441406, 91.92236328125, 2.4344878, 0.07277783, 1.8029709
898, 3360895280, -154.35870361328125, 83.13570404052734, 80.88351440429688, 1.1207926, 0.3564987, 1.8696241
902, 3360961948, -149.84432983398438, 84.03041076660156, 85.52592468261719, -2.1682076, 2.5144742, 0.48448658
905, 3361011949, -139.83045959472656, 84.0421142578125, 96.12828826904297, -0.6701588, -1.2991407, -0.37888145
908, 3361061950, -129.12254333496094, 83.89080047607422, 108.36614990234375, 2.3484612, -2.871051, -0.06061077
911, 3361111951, -124.0780258178711, 83.4765853881836, 114.9085922241211, -0.13559256, 1.3372524, -0.25241375
914, 3361161952, -119.85415649414062, 83.01896667480469, 119.13661193847656, 0.511887, 0.073347785, -0.089761734
917, 3361211953, -116.58623504638672, 82.5618896484375, 123.0180892944336, 0.36300984, 0.05274302, -0.7135353
920, 3361261954, -113.08003997802734, 81.70833587646484, 126.80613708496094, -0.49951747, -0.28303188, -0.020842552
924, 3361328622, -109.53226470947266, 80.60244750976562, 131.0940399169922, 0.15190096, -0.18883984, -0.8199434
927, 3361378623, -108.6646957397461, 80.13727569580078, 132.25746154785156, 0.56497806, -0.5022013, -0.64883614
930, 3361428624, -107.5843505859375, 79.52548217773438, 134.11863708496094, 0.39532524, 0.26520327, -0.5916996
933, 3361478625, -108.55776977539062, 79.06629180908203, 134.03553771972656, 1.495966, -0.78482395, -0.29122353
936, 3361528626, -111.0108871459961, 79.15425872802734, 131.60044860839844, 0.085962415, -2.2114782, 1.0385084
939, 3361578627, -113.4760513305664, 79.65943908691406, 130.99195861816406, -4.1179104, 3.3232377, -0.35659218
943, 3361645295, -115.73980712890625, 79.3858871459961, 126.62161254882812, 2.9060483, -1.6978042, -0.44170952
949, 3361745297, -113.26152801513672, 79.85050964355469, 130.40170288085938, 3.3479671, -3.1281939, -0.3224249
952, 3361795298, -110.12547302246094, 79.88125610351562, 133.64834594726562, -0.7095269, 0.8206286, 0.83668804
955, 3361845299, -110.93505096435547, 80.09410858154297, 133.19944763183594, 2.0531154, -2.9350805, -1.72334
958, 3361895300, -111.52828979492188, 80.91715240478516, 133.78778076171875, -6.6204047, 4.180406, 0.7719021
965, 3362011969, -113.14407348632812, 81.08345794677734, 131.742431640625, -0.9040694, -0.8265362, -0.8064804
968, 3362061970, -112.43057250976562, 80.84410095214844, 132.0272216796875, 0.20878021, 0.302525, -0.24962425
971, 3362111971, -113.40491485595703, 80.82386016845703, 131.65438842773438, 0.8226602, -0.2079627, -0.8355684
974, 3362161972, -112.9040756225586, 80.62394714355469, 132.41676330566406, -0.2202634, 1.1737764, 0.44777393
977, 3362211973, -113.90708923339844, 80.18037414550781, 130.66957092285156, 1.2348661, -1.7536889, 1.4097013
980, 3362261974, -118.80797576904297, 78.48204040527344, 127.5011215209961, -6.8779364, 6.175458, 3.0558186
983, 3362311975, -118.03087615966797, 76.30603790283203, 125.8980484008789, 4.328247, 0.9344328, 0.9128809
987, 3362378643, -114.53848266601562, 74.60674285888672, 127.5025405883789, 3.861737, -2.3179915, 2.0964947
990, 3362428644, -110.75740051269531, 74.43175506591797, 131.2485809326172, 3.1105163, -2.3163676, -0.05559826
993, 3362478645, -107.93585968017578, 74.7571792602539, 133.6112518310547, 1.3259544, -1.5515724, -0.5167389
999, 3362578647, -106.09309387207031, 77.02996063232422, 130.43499755859375, -0.05665718, -1.9410415, -1.1065254
1002, 3362628648, -110.92402648925781, 78.03662872314453, 122.75469970703125, -1.8005645, -0.5131006, -2.315753
1006, 3362695316, -110.41654968261719, 79.05789184570312, 119.05628967285156, -2.318381, -0.04032928, -2.8358822
1009, 3362745317, -108.99783325195312, 79.84529876708984, 118.82947540283203, -2.7452033, 0.11114154, -1.7041626
1012, 3362795318, -110.40322875976562, 80.21896362304688, 117.156982421875, -1.7900231, 2.1502964, -0.93486404
1015, 3362845319, -112.79175567626953, 79.89540100097656, 114.26412200927734, 0.3427826, 2.3052392, 0.21660614
1018, 3362895320, -110.86937713623047, 79.62024688720703, 115.49313354492188, 1.9941761, 1.3020877, -0.28036785
1021, 3362945321, -107.51264953613281, 79.49322509765625, 118.7145767211914, 1.6885841, 0.49848384, -0.7052908
1028, 3363061990, -93.66588592529297, 79.78768157958984, 128.6792755126953, -0.17649455, -0.8741517, -1.2611561
1031, 3363111991, -91.39421081542969, 79.91765594482422, 130.74478149414062, -0.8032335, -0.5590965, -0.5504322
1037, 3363211993, -85.3320541381836, 80.06401824951172, 135.64743041992188, 0.17169505, 0.2590828, 0.3820858
1040, 3363261994, -81.94042205810547, 79.67276763916016, 138.30642700195312, -0.023282338, -0.5618233, 0.23665047
1043, 3363311995, -78.49864196777344, 79.41429901123047, 141.45645141601562, 0.034187872, -0.23352087, 0.42540455
1050, 3363428664, -71.23097229003906, 78.22391510009766, 148.00503540039062, -0.6785172, -0.17606418, 0.12850094
1053, 3363478665, -68.63367462158203, 77.71481323242188, 150.3773193359375, -0.39719012, 0.27876234, -0.0012369156
1056, 3363528666, -67.16140747070312, 77.455810546875, 151.4813232421875, -0.3691537, -0.12937522, -0.19740677
1062, 3363628668, -68.19949340820312, 77.80262756347656, 151.03489685058594, 0.2523446, -0.47084278, 0.0027723312
1065, 3363678669, -70.6533203125, 78.82586669921875, 149.3422393798828, 0.56617445, -0.09290964, 0.20107937
1068, 3363728670, -72.11598205566406, 79.97367858886719, 148.37367248535156, 0.46502328, 0.1318523, -0.33996964
1072, 3363795338, -77.92880249023438, 81.84974670410156, 143.0638427734375, 0.5612681, 0.319071, -0.55984783
1084, 3363995342, -175.80055236816406, 84.3705062866211, 49.760826110839844, -0.32905805, -0.059361354, -0.3646288
1087, 3364045343, 167.2936248779297, 82.81220245361328, 33.82856750488281, -1.0735217, 0.75057787, 0.12923431
1091, 3364112011, 159.05078125, 81.91571044921875, 25.017053604125977, -2.3473828, 1.0484546, -0.15236759
1094, 3364162012, 157.48004150390625, 81.97089385986328, 23.778289794921875, -1.0491229, -0.45634326, -0.030905724
1097, 3364212013, 160.9140625, 81.99604797363281, 30.3325252532959, -1.8191454, 1.2182537, -0.007419586
1100, 3364262014, 168.43124389648438, 82.20935821533203, 39.004364013671875, -0.38066646, 0.17730388, -0.24822998
1103, 3364312015, 177.25730895996094, 82.60405731201172, 48.2014045715332, 0.39312553, -0.22403307, -0.15526962
1106, 3364362016, -174.07186889648438, 83.0054931640625, 57.11726379394531, 0.43891495, -0.21875302, 0.09608936
1109, 3364412017, -166.3399658203125, 83.35388946533203, 64.33879852294922, 0.6476298, -0.31290495, 0.31053925
1113, 3364478685, -155.49375915527344, 83.77373504638672, 74.16291809082031, 0.82329464, -0.19184363, -0.36557388
1119, 3364578687, -142.86265563964844, 84.28097534179688, 84.31147003173828, 0.2322884, -0.020559393, -0.2756214
1122, 3364628688, -138.03758239746094, 84.22969818115234, 87.55622100830078, 0.18147117, 0.008675208, -0.01717472
1125, 3364678689, -132.87750244140625, 84.33873748779297, 91.2636947631836, -0.06265521, 0.14178176, -0.364151
1128, 3364728690, -129.24496459960938, 84.4512939453125, 93.81148529052734, -0.016763471, -0.18504615, -0.4082098
1135, 3364845359, -130.12342834472656, 84.24813842773438, 92.34712219238281, -0.019536206, -0.253019, -0.18876839
1138, 3364895360, -131.6232452392578, 84.24227905273438, 90.90496063232422, -0.12777, -0.089979276, 0.11249924
1141, 3364945361, -133.0950469970703, 84.27204132080078, 89.3208236694336, -0.14552587, -0.0646053, -0.057444572
1144, 3364995362, -133.787841796875, 84.4303970336914, 88.46925354003906, -0.28828505, 0.041036867, -0.15596771
1150, 3365095364, -135.77642822265625, 84.67166900634766, 86.53207397460938, -0.09759101, -0.011902512, -0.20250225
1157, 3365212033, -140.22006225585938, 84.67689514160156, 83.41276550292969, 0.044781435, 0.008534507, -0.2091856
1160, 3365262034, -141.71826171875, 84.75888061523438, 81.99681091308594, 0.14532472, -0.13684256, -0.27327347
1163, 3365312035, -143.9898223876953, 84.85433197021484, 79.81763458251953, 0.026974997, -0.075381644, -0.1696825
1166, 3365362036, -145.8605194091797, 84.89140319824219, 77.85358428955078, 0.025476733, -0.044647943, -0.06777954
1169, 3365412037, -146.94204711914062, 84.93257141113281, 76.71047973632812, 0.039475292, -0.055123772, -0.18484592
1172, 3365462038, -147.8197021484375, 85.01347351074219, 75.75302124023438, -0.0201835, 0.023620738, -0.25139523
1179, 3365578707, -149.3935546875, 85.16831970214844, 74.1217041015625, 0.04113583, -0.0965111, -0.16017246
1182, 3365628708, -149.93603515625, 85.20862579345703, 73.63042449951172, 0.058117393, -0.08444778, -0.17113209
1185, 3365678709, -149.7796630859375, 85.26397705078125, 73.7252426147461, 0.01408601, -0.088764146, -0.25126266
1188, 3365728710, -149.65554809570312, 85.31938934326172, 73.78070068359375, 0.08776733, -0.15639839, -0.19567871
1198, 3365895380, -149.03512573242188, 85.43172454833984, 74.07954406738281, 0.01259747, -0.09409795, -0.23588085
1204, 3365995382, -148.70091247558594, 85.45162200927734, 74.32704162597656, 0.0659394, -0.10664764, -0.27489662
1207, 3366045383, -149.4330596923828, 85.50826263427734, 73.60979461669922, 0.022719644, -0.12203953, -0.21787071
1210, 3366095384, -150.2550811767578, 85.49919891357422, 72.78160095214844, -0.02691437, -0.03002673, -0.15441895
1213, 3366145385, -150.68858337402344, 85.48577117919922, 72.18952941894531, -0.0051857242, -0.07080376, -0.07752609
1220, 3366262054, -150.3958740234375, 85.39849090576172, 72.32073211669922, 0.018330298, -0.04321433, -0.22444248
1223, 3366312055, -150.7849578857422, 85.38052368164062, 71.91568756103516, 0.0020290506, -0.11063232, -0.19914436
1226, 3366362056, -151.06777954101562, 85.30810546875, 71.75566864013672, 0.013170669, -0.13711715, -0.2077055
1229, 3366412057, -151.55101013183594, 85.26583862304688, 71.37498474121094, 0.0451295, -0.07362763, -0.22648335
1232, 3366462058, -151.82127380371094, 85.28524017333984, 71.09809112548828, 0.029723031, -0.08756589, -0.21654224
1239, 3366578727, -152.40771484375, 85.30652618408203, 70.42211151123047, -0.03095945, -0.07700726, -0.15066147
1245, 3366678729, -152.5616912841797, 85.25640869140625, 70.20157623291016, -0.056956634, -0.07051096, -0.18590832
1248, 3366728730, -152.49021911621094, 85.25006103515625, 70.28024291992188, 0.07989605, -0.15753226, -0.21846485
1251, 3366778731, -152.71926879882812, 85.15225219726562, 70.20307922363281, -0.021393934, -0.09539365, -0.18462181
1254, 3366828732, -152.744873046875, 85.09771728515625, 70.19728088378906, 0.015613721, -0.065576464, -0.1935234
1261, 3366945401, -153.17420959472656, 85.04658508300781, 69.71885681152344, 0.02578194, -0.06563458, -0.21175766
1267, 3367045403, -154.55999755859375, 85.11128234863281, 68.29903411865234, -0.008369108, -0.118241705, -0.20036697
1270, 3367095404, -155.3826141357422, 85.1379623413086, 67.42731475830078, 0.052997492, -0.077752784, -0.17119408
1273, 3367145405, -156.2175750732422, 85.14340209960938, 66.53050231933594, -0.036993183, -0.058316875, -0.13254261
1276, 3367195406, -156.3646697998047, 85.16807556152344, 66.19293212890625, 0.018764695, -0.06545175, -0.21048355
1283, 3367312075, -157.40916442871094, 85.19828796386719, 64.82266235351562, -0.0021247142, -0.10052384, -0.18171406
1286, 3367362076, -158.46405029296875, 85.19849395751953, 63.72500228881836, -0.03176516, -0.07545272, -0.16716576
1289, 3367412077, -159.20091247558594, 85.18427276611328, 62.96799850463867, 0.022162873, -0.13807234, -0.17516232
1292, 3367462078, -159.5150146484375, 85.10487365722656, 62.88162612915039, -0.0038268212, -0.11231951, -0.15494537
1295, 3367512079, -159.4818115234375, 85.11288452148438, 62.934539794921875, -0.00942448, -0.045248523, -0.2701149
1298, 3367562080, -159.88412475585938, 85.21283721923828, 62.382083892822266, 0.07507627, -0.13747656, -0.19928074
1302, 3367628748, -160.2977294921875, 85.20281982421875, 61.932701110839844, 0.013538292, -0.0466704, -0.17138958
1305, 3367678749, -160.06887817382812, 85.18606567382812, 62.008304595947266, -7.2574656E-4, -0.078810446, -0.15150261
1311, 3367778751, -159.8556671142578, 85.16738891601562, 62.196556091308594, -2.4234393E-4, -0.123330876, -0.22886562
1314, 3367828752, -160.4650421142578, 85.17635345458984, 61.73915481567383, -0.008154535, -0.15677981, -0.2060833
1317, 3367878753, -160.34153747558594, 85.13594818115234, 62.02778244018555, 0.0014500403, -0.08785624, -0.15548515
1320, 3367928754, -159.83511352539062, 85.0834732055664, 62.64203643798828, 0.05259271, -0.04222048, -0.21758747
1324, 3367995422, -159.56475830078125, 85.05946350097656, 63.03166198730469, 0.06478992, -0.11257364, -0.19259071
1327, 3368045423, -159.6321258544922, 85.01787567138672, 63.077762603759766, 0.03035753, 0.0032200394, -0.20866203
1330, 3368095424, -159.58229064941406, 85.037109375, 63.02125549316406, -0.09116361, -0.061991878, -0.14382076
1333, 3368145425, -159.2339324951172, 85.0852279663086, 63.19115447998047, -0.055855945, -0.15852958, -0.22200775
1336, 3368195426, -158.28994750976562, 85.10647583007812, 64.06734466552734, 0.010639664, -0.20952663, -0.20967674
1346, 3368362096, -156.5200958251953, 85.20269775390625, 66.03050994873047, 0.09046374, -0.10727739, -0.1789732
1349, 3368412097, -157.0905303955078, 85.20767974853516, 65.45751190185547, 0.024040103, -0.08830147, -0.11806202
1355, 3368512099, -157.47097778320312, 85.14054107666016, 64.71967315673828, -0.11070362, -0.14132512, -0.22954655
1358, 3368562100, -157.74136352539062, 85.15140533447266, 64.30420684814453, 0.010185095, -0.23802051, -0.26053238
1365, 3368678769, -159.59132385253906, 85.13506317138672, 62.92105484008789, 0.17706607, -0.15838397, -0.22905159
1368, 3368728770, -160.73504638671875, 85.13152313232422, 61.904396057128906, 0.09794394, -0.114382535, -0.11225796
1371, 3368778771, -161.27540588378906, 85.13570404052734, 61.13399887084961, 0.020873819, -0.049607806, -0.17465591
1374, 3368828772, -161.86737060546875, 85.2004165649414, 60.09415054321289, -0.022329504, -0.07228107, -0.20514202
1377, 3368878773, -162.62948608398438, 85.24634552001953, 58.957374572753906, -0.012694698, -0.14923882, -0.19717503
1380, 3368928774, -163.3611602783203, 85.26873779296875, 58.21036148071289, -0.058783907, -0.1559688, -0.15397072
1384, 3368995442, -164.01385498046875, 85.28050994873047, 57.753196716308594, -0.010286848, -0.12469073, -0.16506195
1387, 3369045443, -163.85348510742188, 85.2588882446289, 58.06547927856445, 0.10864216, -0.11424004, -0.21679783
1393, 3369145445, -164.68185424804688, 85.29318237304688, 57.400821685791016, 0.09337768, -0.14159702, -0.17352104
1399, 3369245447, -165.2308349609375, 85.28246307373047, 56.55225372314453, 0.001498375, -0.14601989, -0.18001747
1402, 3369295448, -165.1659393310547, 85.29014587402344, 56.41880416870117, 0.0111039, -0.17664877, -0.1948185
1406, 3369362116, -165.15533447265625, 85.27693939208984, 56.54048156738281, 0.015867129, -0.12803526, -0.23823166
1412, 3369462118, -164.86624145507812, 85.27217102050781, 56.8488655090332, 0.019024417, -0.08092711, -0.1602459
1415, 3369512119, -163.99224853515625, 85.2031478881836, 57.716163635253906, 0.10959818, -0.05467641, -0.18750477
1418, 3369562120, -163.38265991210938, 85.12295532226562, 58.40406036376953, 0.07132214, -0.08344521, -0.2809019
1424, 3369662122, -163.64244079589844, 85.0756607055664, 58.070133209228516, 0.06833489, -0.16663326, -0.22223568
1428, 3369728790, -164.1436767578125, 85.11585235595703, 57.52824020385742, -0.017482346, -0.18744746, -0.1611042
1431, 3369778791, -163.8816680908203, 85.13147735595703, 57.69830322265625, 0.0031166647, -0.08363676, -0.14173603
1437, 3369878793, -162.69467163085938, 85.2369613647461, 58.20246124267578, 0.012426147, -0.09982737, -0.25696754
1440, 3369928794, -162.1322784423828, 85.22480010986328, 58.74283218383789, 0.024783228, -0.16928034, -0.18963528
1443, 3369978795, -162.0352020263672, 85.18533325195312, 59.07162094116211, -0.026352737, -0.054380257, -0.22096348
1446, 3370028796, -162.00396728515625, 85.20490264892578, 59.25774002075195, 0.048847638, -0.12942876, -0.19843006
1450, 3370095464, -161.90496826171875, 85.21414184570312, 59.47344970703125, -0.0010332445, -0.103341214, -0.18235779
1453, 3370145465, -161.86468505859375, 85.29309844970703, 59.28429412841797, 0.060947567, -0.19031268, -0.23884487
1456, 3370195466, -161.82533264160156, 85.35712432861328, 59.21168899536133, 0.068361156, -0.18924898, -0.26063538
1459, 3370245467, -162.26226806640625, 85.41632080078125, 58.730804443359375, 0.06996006, -0.12510332, -0.15937805
1462, 3370295468, -162.76663208007812, 85.44022369384766, 58.108421325683594, 0.012517285, -0.10670553, -0.084879875
1465, 3370345469, -162.3378143310547, 85.39266204833984, 58.31804275512695, -0.045619834, -0.030637145, -0.07284832
1472, 3370462138, -161.17681884765625, 85.20118713378906, 58.80195236206055, -0.053990114, -0.2037876, -0.12836456
1478, 3370562140, -163.69960021972656, 84.7840576171875, 56.9799919128418, -0.19262576, -0.17915379, -0.21975899
1481, 3370612141, -162.79962158203125, 84.81715393066406, 58.67234420776367, -0.41806656, 0.14624062, -0.09324741
1484, 3370662142, -159.94227600097656, 84.99402618408203, 61.49238586425781, 0.1747711, -0.30999693, -0.2882328
1487, 3370712143, -157.95005798339844, 85.07037353515625, 63.825340270996094, 0.24785425, -0.18628699, -0.24629211
1491, 3370778811, -156.80926513671875, 85.13562774658203, 65.2436752319336, 0.34045467, -0.07053208, -0.26054096
1494, 3370828812, -157.39659118652344, 85.19894409179688, 64.64790344238281, 0.0594849, -0.03567535, -0.17950821
1500, 3370928814, -159.18605041503906, 85.31024169921875, 62.064815521240234, -0.09450251, -0.186847, -0.118242264
1503, 3370978815, -159.4011993408203, 85.3510971069336, 61.73237228393555, 0.02871633, -0.30460078, -0.2791357
1506, 3371028816, -159.72398376464844, 85.34524536132812, 61.600337982177734, 0.04395639, -0.20968957, -0.24979973
1509, 3371078817, -160.5874481201172, 85.35105895996094, 60.92500686645508, 0.123969674, -0.17125373, -0.14057636
1513, 3371145485, -160.58602905273438, 85.48612213134766, 60.883663177490234, 0.0068751466, 0.06359402, -0.10142326
1516, 3371195486, -159.45953369140625, 85.50634765625, 61.5435905456543, -0.02049027, -0.0837988, -0.09433174
1519, 3371245487, -158.32119750976562, 85.46028900146484, 62.34113311767578, -0.0770885, -0.12647638, -0.17155361
1522, 3371295488, -157.04664611816406, 85.36654663085938, 63.44367980957031, -0.08431434, -0.17513111, -0.20615673
1525, 3371345489, -156.45828247070312, 85.28964233398438, 64.06494903564453, -0.026473377, -0.21095107, -0.16316414
1538, 3371562160, -157.80508422851562, 85.33104705810547, 64.0955810546875, 0.03184685, -0.015660211, -0.273674
1550, 3371762164, -152.8819580078125, 85.73084259033203, 69.75450897216797, 0.07260902, -0.05759683, -0.29749012
1554, 3371828832, -149.5808868408203, 86.12177276611328, 73.22935485839844, 0.028234156, 0.0323535, -0.23364162
1569, 3372078837, -145.53956604003906, 86.20729064941406, 77.00896453857422, 0.05568898, -0.1219794, -0.22108173
1572, 3372128838, -145.84735107421875, 86.19816589355469, 76.791259765625, 0.06752958, -0.2287236, -0.2583809
1576, 3372195506, -146.21681213378906, 86.17854309082031, 76.74085235595703, 0.0632692, -0.09565349, -0.21984577
1579, 3372245507, -145.98524475097656, 86.16130828857422, 76.9376449584961, 0.062192257, -0.10086838, -0.12864971
1582, 3372295508, -145.44078063964844, 86.19707489013672, 77.2829360961914, 0.039605714, -0.120530814, -0.18838215
1585, 3372345509, -144.90396118164062, 86.20527648925781, 77.56407165527344, 0.0048880605, -0.15086566, -0.1692009
1588, 3372395510, -144.35328674316406, 86.19574737548828, 78.0290756225586, 0.052687537, -0.15850645, -0.26103115
1591, 3372445511, -144.49514770507812, 86.2092514038086, 77.92239379882812, 0.030337414, -0.14619994, -0.20217133
1595, 3372512179, -144.73377990722656, 86.22940063476562, 77.80442810058594, -0.029025616, -0.13917783, -0.1670618
1598, 3372562180, -144.7688446044922, 86.24881744384766, 77.7647476196289, -0.028278356, -0.11501038, -0.18270683
1604, 3372662182, -144.4957733154297, 86.22940063476562, 77.95464324951172, -0.07055192, -0.21947195, -0.18290615
1607, 3372712183, -145.0583953857422, 86.14608001708984, 77.51204681396484, -0.1739033, -0.19386955, -0.26786995
1610, 3372762184, -146.66041564941406, 85.92388153076172, 76.20211029052734, -0.118941635, -0.04499271, -0.13440609
1613, 3372812185, -149.953369140625, 85.4067153930664, 72.8818588256836, -0.11980087, 0.20825686, -0.33184624
1617, 3372878853, -152.9685516357422, 84.27871704101562, 70.00993347167969, -0.21697676, 0.048537403, -0.2312212
1620, 3372928854, -155.0275115966797, 83.16910552978516, 68.65174865722656, 0.028215662, -0.44324878, -0.2795353
1623, 3372978855, -156.78997802734375, 81.97894287109375, 68.53173828125, 0.10401533, -0.28022972, 0.08212948
1626, 3373028856, -157.4229736328125, 81.08716583251953, 69.4391860961914, -0.021742223, -0.0048079873, -0.023251534
1629, 3373078857, -157.409423828125, 80.4683837890625, 70.30265045166016, 0.15683614, -0.45482105, -0.41204834
1632, 3373128858, -157.42623901367188, 79.83473205566406, 71.1234130859375, 0.25210473, -0.36912146, -0.3252182
1639, 3373245527, -157.73501586914062, 79.01007843017578, 71.58334350585938, 0.36116028, -0.33969375, -0.29785347
1642, 3373295528, -157.86825561523438, 79.13599395751953, 71.50592041015625, 0.18681034, -0.26667196, -0.1839056
1648, 3373395530, -157.74996948242188, 79.57418823242188, 71.46424865722656, 0.122842945, 0.06985607, -0.20822144
1651, 3373445531, -157.56732177734375, 79.7854995727539, 71.25746154785156, 0.030518683, 0.11643628, -0.09343338
1654, 3373495532, -157.21682739257812, 79.92053985595703, 71.06541442871094, -0.01636953, -0.06340761, -0.17199516
1658, 3373562200, -157.0609588623047, 79.8565444946289, 71.03144836425781, -0.076180145, -0.1074448, -0.18331146
1664, 3373662202, -157.8590545654297, 79.08662414550781, 71.2599868774414, 0.0058551454, -0.09369954, -0.24215221
1667, 3373712203, -157.61570739746094, 78.6541519165039, 72.27953338623047, -0.05369675, -0.09915068, -0.2419424
1670, 3373762204, -156.4317626953125, 78.35820770263672, 73.7257308959961, -0.083802044, -0.19821464, -0.09818554
1673, 3373812205, -154.63278198242188, 78.3969497680664, 75.31742858886719, 0.13935664, -0.55479234, -0.31501484
1683, 3373978875, -155.95590209960938, 78.74813842773438, 75.09578704833984, -0.02271998, 0.06885462, 0.045677185
1686, 3374028876, -156.0942840576172, 78.70848846435547, 74.89474487304688, 0.0822559, 0.051227044, -0.1005249
1692, 3374128878, -155.61660766601562, 78.66438293457031, 75.34886932373047, 0.16742909, -0.18300213, -0.3939457
1695, 3374178879, -155.6368865966797, 78.80169677734375, 75.1348648071289, 0.18496826, -0.30603808, -0.30987263
1698, 3374228880, -155.5923309326172, 78.9521484375, 74.90300750732422, 0.084300704, -0.21046372, -0.18312263
1705, 3374345549, -154.7643280029297, 79.30318450927734, 74.44063568115234, 0.042413708, -0.11272641, -0.25872707
1708, 3374395550, -154.642333984375, 79.40975952148438, 74.22028350830078, 0.0076458193, -0.17987284, -0.23245716
1717, 3374545553, -155.1437225341797, 79.82562255859375, 73.6694107055664, 0.08527467, -0.21283205, -0.21056557
1724, 3374662222, -155.15353393554688, 79.83056640625, 73.80036926269531, 0.08433401, -0.091922164, -0.21565533
1727, 3374712223, -154.97019958496094, 79.89636993408203, 73.88787078857422, 0.122630045, -0.22575088, -0.2767706
1730, 3374762224, -155.0382537841797, 79.91989135742188, 73.86344146728516, 0.06916262, -0.20380291, -0.22914314
1733, 3374812225, -155.08062744140625, 79.93174743652344, 73.82386779785156, 0.058542512, -0.14715847, -0.21443367
1739, 3374912227, -154.9644317626953, 79.95352935791016, 73.91998291015625, 0.06710898, -0.11573646, -0.13476276
1743, 3374978895, -154.53887939453125, 79.83135986328125, 74.3559799194336, 0.09297301, -0.101577476, -0.2660818
1749, 3375078897, -153.30032348632812, 79.87882995605469, 75.01200103759766, 0.023377107, -0.21924777, -0.1371727
1752, 3375128898, -152.8308868408203, 79.91952514648438, 75.15540313720703, -0.07220575, -0.1979063, -0.24513054
1755, 3375178899, -152.53939819335938, 79.9820327758789, 75.26367950439453, 0.022459475, -0.20421976, -0.18304253
1758, 3375228900, -152.5968780517578, 79.93682861328125, 75.41169738769531, -0.01784114, -0.21341598, -0.20628071
1765, 3375345569, -152.97103881835938, 79.53627014160156, 76.4622573852539, 0.00317109, -0.14634007, -0.1325779
1774, 3375495572, -147.1862335205078, 79.36207580566406, 82.35800170898438, 0.30993447, -0.2591833, -0.5547228
1777, 3375545573, -146.87744140625, 79.5314712524414, 82.05281829833984, 0.06831886, -0.15502267, -0.32157707
1780, 3375595574, -147.56971740722656, 79.73158264160156, 80.77818298339844, -0.036760505, -0.262696, -0.03533554
1783, 3375645575, -148.405029296875, 79.65917205810547, 79.90708923339844, -0.21054663, -0.10159033, 0.060894966
1787, 3375712243, -148.55592346191406, 79.50054931640625, 79.5380630493164, -0.17277808, -0.1575079, -0.1861391
1790, 3375762244, -148.32151794433594, 79.45243835449219, 79.67090606689453, 0.079149514, -0.22227325, -0.30327797
1793, 3375812245, -148.58351135253906, 79.42273712158203, 79.82119750976562, 0.19563866, -0.26838252, -0.42809677
1796, 3375862246, -149.48165893554688, 79.4674072265625, 79.77271270751953, 0.30585825, -0.1488773, -0.37431335
1799, 3375912247, -150.40614318847656, 79.53852844238281, 79.28876495361328, 0.18823501, -0.045221478, -0.20832634
1802, 3375962248, -150.6920623779297, 79.68243408203125, 78.96408081054688, 0.22991693, -0.115738474, -0.23009396
1809, 3376078917, -150.41806030273438, 80.08460235595703, 78.4214096069336, 0.064735726, -0.3322274, -0.21904087
1815, 3376178919, -150.18630981445312, 80.14415740966797, 78.69896697998047, 0.062998354, -0.16255863, -0.19997597
1818, 3376228920, -149.34713745117188, 80.23870086669922, 79.33765411376953, 0.19842653, -0.19245282, -0.27307224
1824, 3376328922, -146.46185302734375, 80.89480590820312, 80.56995391845703, -0.032540582, -0.18817969, -0.12303734
1831, 3376445591, -144.71067810058594, 81.2357406616211, 81.04013061523438, -0.09340439, -0.1616505, -0.115324974
1834, 3376495592, -145.03285217285156, 81.02465057373047, 81.14046478271484, -0.042668846, -0.11701909, -0.17679977
1840, 3376595594, -145.87942504882812, 80.85931396484375, 81.5084228515625, 0.20942895, -0.35387933, -0.40547085
1843, 3376645595, -146.68197631835938, 80.90666198730469, 81.19112396240234, 0.22171994, -0.20808129, -0.10340023
1847, 3376712263, -146.54649353027344, 80.98589324951172, 81.21041107177734, 0.072101146, -0.11899103, -0.18297291
1850, 3376762264, -146.10104370117188, 81.03777313232422, 81.34911346435547, -0.007152191, -0.13829584, -0.2073412
1856, 3376862266, -145.50396728515625, 80.97581481933594, 81.82463073730469, 0.042573407, -0.13780534, -0.22853851
1862, 3376962268, -145.3648681640625, 80.88383483886719, 82.08755493164062, 0.042527363, -0.25125504, -0.17996883
1865, 3377012269, -145.47564697265625, 80.7863998413086, 82.11978912353516, -0.018594155, -0.19366929, -0.1357336
1872, 3377128938, -144.79534912109375, 80.5956039428711, 82.6314468383789, 0.058399577, -0.16948228, -0.22879696
1875, 3377178939, -144.75216674804688, 80.59941864013672, 82.56019592285156, 0.08702019, -0.22096334, -0.23145294
1878, 3377228940, -145.17884826660156, 80.5262680053711, 82.2906494140625, 0.021971101, -0.15844946, -0.21011162
1881, 3377278941, -145.44775390625, 80.47566986083984, 82.16099548339844, 0.041236576, -0.12577051, -0.13106728
1891, 3377445611, -144.8131561279297, 80.6398696899414, 82.23709106445312, 0.047520418, -0.2481632, -0.25346088
1894, 3377495612, -145.2571563720703, 80.66543579101562, 81.99575805664062, 0.08320929, -0.24059919, -0.23703289
1897, 3377545613, -145.560546875, 80.67582702636719, 81.79598236083984, 0.03301331, -0.1253264, -0.16714191
1903, 3377645615, -144.82835388183594, 80.82313537597656, 81.94279479980469, 0.09034617, -0.23892026, -0.20572853
1906, 3377695616, -144.86172485351562, 80.81547546386719, 81.80860137939453, -0.004645605, -0.15963742, -0.14201641
1913, 3377812285, -144.53453063964844, 80.7742691040039, 82.05730438232422, 0.09199313, -0.1673874, -0.2427597
1916, 3377862286, -144.4726104736328, 80.74834442138672, 82.19654083251953, 0.15821443, -0.18944813, -0.2645502
1919, 3377912287, -144.74752807617188, 80.76664733886719, 82.07704162597656, 0.096489646, -0.13395746, -0.22463417
1922, 3377962288, -144.82601928710938, 80.74356079101562, 82.08392333984375, 0.065502815, -0.16602956, -0.18451595
1925, 3378012289, -144.63177490234375, 80.74929809570312, 82.2538070678711, 0.07606872, -0.17284246, -0.18338871
1928, 3378062290, -144.27581787109375, 80.71712493896484, 82.5382308959961, 0.09055828, -0.18162417, -0.19707775
1932, 3378128958, -143.68402099609375, 80.72425842285156, 82.89616394042969, 0.08233949, -0.18261378, -0.2647333
1935, 3378178959, -143.5533447265625, 80.77804565429688, 82.85966491699219, 0.010372231, -0.19913161, -0.19600773
1938, 3378228960, -143.51475524902344, 80.8023910522461, 82.80787658691406, 0.034386687, -0.15468684, -0.18557072
1941, 3378278961, -143.43234252929688, 80.82270812988281, 82.85939025878906, -0.007338489, -0.19120952, -0.19769287
1947, 3378378963, -143.23512268066406, 80.87157440185547, 83.02056121826172, 0.12535053, -0.19320896, -0.2503729
1954, 3378495632, -143.713623046875, 81.02024841308594, 82.56515502929688, 0.07054818, -0.13611828, -0.15809536
1957, 3378545633, -143.6443328857422, 81.08916473388672, 82.41426086425781, 0.027013775, -0.16334361, -0.19795609
1960, 3378595634, -143.6255340576172, 81.14390563964844, 82.30553436279297, 0.11111019, -0.2079493, -0.24334049
1963, 3378645635, -143.83587646484375, 81.16344451904297, 82.19137573242188, 0.035723966, -0.15535212, -0.18979931
1969, 3378745637, -144.07579040527344, 81.44165802001953, 81.7467041015625, 0.08222103, -0.20222369, -0.20271397
1972, 3378795638, -144.50115966796875, 81.47737121582031, 81.41287994384766, 0.055618852, -0.13245746, -0.13275337
1979, 3378912307, -144.97682189941406, 81.52692413330078, 80.98059844970703, 0.09835933, -0.22026286, -0.2425003
1982, 3378962308, -145.47994995117188, 81.54991912841797, 80.62498474121094, 0.12832583, -0.23183456, -0.21669388
1985, 3379012309, -145.89041137695312, 81.54076385498047, 80.41167449951172, 0.09720333, -0.14076063, -0.1680727
1988, 3379062310, -145.80455017089844, 81.58436584472656, 80.37751770019531, 0.04588162, -0.14117782, -0.14384842
1991, 3379112311, -145.41946411132812, 81.63497161865234, 80.47991180419922, 0.05239937, -0.20374224, -0.20741367
1995, 3379178979, -145.092041015625, 81.59454345703125, 80.64923858642578, 0.09275877, -0.1872937, -0.25691128
1998, 3379228980, -145.08642578125, 81.57198333740234, 80.67188262939453, 0.045380507, -0.19648354, -0.18223763
2001, 3379278981, -145.169189453125, 81.5345687866211, 80.68587493896484, 0.023892976, -0.15621153, -0.12675571
2004, 3379328982, -144.94691467285156, 81.45948791503906, 80.93680572509766, 0.054514922, -0.124350876, -0.21680355
2007, 3379378983, -144.4585723876953, 81.43583679199219, 81.33639526367188, 0.1466788, -0.19859931, -0.27073574
2013, 3379478985, -144.64004516601562, 81.37306213378906, 81.22057342529297, 0.03679269, -0.19135, -0.18288517
2020, 3379595654, -143.9889678955078, 81.37643432617188, 81.64949798583984, 0.10475303, -0.20249246, -0.15159512
2029, 3379745657, -143.7437744140625, 81.33798217773438, 81.61854553222656, 0.03868607, -0.24758105, -0.18226242
2036, 3379862326, -144.30067443847656, 81.3459243774414, 81.26168823242188, 0.13155168, -0.17164364, -0.23296547
2039, 3379912327, -144.22947692871094, 81.41727447509766, 81.3805923461914, 0.20037523, -0.20388639, -0.2017622
2042, 3379962328, -144.25364685058594, 81.49234008789062, 81.1187973022461, 0.05570781, -0.1706764, -0.22209549
2045, 3380012329, -144.63119506835938, 81.56948852539062, 80.34357452392578, 0.04894364, -0.30697528, -0.2787485
2051, 3380112331, -146.02203369140625, 81.68754577636719, 79.35199737548828, 0.09019597, -0.0917961, -0.17279625
2054, 3380162332, -145.87281799316406, 81.7752914428711, 79.4261703491211, 0.21924487, -0.14869009, -0.20647717
2061, 3380279001, -145.67633056640625, 81.87203979492188, 79.25656127929688, -0.11059086, -0.17414755, -0.11141205
2073, 3380479005, -143.9244842529297, 81.8564224243164, 80.61851501464844, 0.10321023, -0.2291085, -0.17885876
2076, 3380529006, -143.79928588867188, 81.86660766601562, 80.71590423583984, 0.08857584, -0.21337788, -0.22086143
2080, 3380595674, -143.3264923095703, 81.93505859375, 81.04827880859375, 0.07973808, -0.18512784, -0.21156788
2083, 3380645675, -142.9853057861328, 81.94036865234375, 81.3216781616211, 0.13803886, -0.19174752, -0.2326498
2086, 3380695676, -142.68360900878906, 81.90083312988281, 81.67498016357422, 0.08934551, -0.18146525, -0.18466187
2089, 3380745677, -142.25595092773438, 81.93759155273438, 82.04986572265625, 0.017740838, -0.1886484, -0.16228962
2092, 3380795678, -141.48779296875, 81.92980194091797, 82.61225891113281, 0.053630203, -0.24167047, -0.16918278
2095, 3380845679, -140.9004669189453, 81.83721160888672, 83.17152404785156, -0.01620698, -0.1522701, -0.16707516
2099, 3380912347, -139.41883850097656, 81.82003021240234, 84.36927795410156, 0.0829451, -0.20880458, -0.22140312
2102, 3380962348, -138.4242706298828, 81.79194641113281, 85.29344940185547, 0.09616555, -0.21465178, -0.27745914
2108, 3381062350, -136.7244873046875, 81.75647735595703, 86.77545928955078, 0.10919966, -0.09354095, -0.28093338
2111, 3381112351, -135.96681213378906, 81.7969970703125, 87.3196792602539, 0.09245653, -0.1909602, -0.23960781
2114, 3381162352, -135.4392852783203, 81.78455352783203, 87.85555267333984, 0.130817, -0.25867423, -0.23791027
2117, 3381212353, -135.050537109375, 81.80171203613281, 88.3748550415039, 0.10790725, -0.19461083, -0.2265873
2121, 3381279021, -134.03684997558594, 81.79197692871094, 89.38941955566406, 0.20231164, -0.11294065, -0.16450787
2124, 3381329022, -132.96356201171875, 81.80868530273438, 90.1384506225586, 0.057464343, -0.1236809, -0.17743778
2127, 3381379023, -132.14637756347656, 81.95861053466797, 90.2708511352539, -0.18326369, -0.27510622, -0.11138439
2130, 3381429024, -131.86764526367188, 81.99469757080078, 90.17587280273438, -0.13862363, -0.31446227, -0.11134052
2136, 3381529026, -131.42015075683594, 81.861083984375, 91.23912048339844, 0.23427214, -0.042050723, -0.28464413
2139, 3381579027, -131.30914306640625, 81.90364837646484, 91.33702850341797, 0.23275119, -0.1754532, -0.2829132
2146, 3381695696, -130.73785400390625, 82.1134033203125, 91.55718231201172, -0.024039432, -0.16651358, -0.10960865
2149, 3381745697, -129.7010040283203, 82.23573303222656, 92.2846908569336, 0.07402079, -0.1812214, -0.21598339
2152, 3381795698, -128.7158660888672, 82.38665771484375, 92.99996948242188, 0.045095414, -0.24691029, -0.17769814
2155, 3381845699, -128.3323516845703, 82.45462799072266, 93.28199005126953, 0.030594286, -0.27097112, -0.19272709
2158, 3381895700, -128.1221466064453, 82.46969604492188, 93.48966979980469, 0.057817996, -0.22245674, -0.15709496
2161, 3381945701, -128.0497589111328, 82.39125061035156, 93.63259887695312, 0.11189137, -0.14285082, -0.15169048
2165, 3382012369, -127.27365112304688, 82.27249145507812, 94.1956787109375, 0.038698196, -0.20690013, -0.18029785
2168, 3382062370, -126.72279357910156, 82.23135375976562, 94.57208251953125, 0.051174577, -0.2348341, -0.24175644
2171, 3382112371, -126.43513488769531, 82.18649291992188, 94.80927276611328, 0.035145346, -0.21618351, -0.16379261
2180, 3382262374, -124.76419830322266, 82.20459747314453, 96.00301361083984, 0.019477086, -0.30625802, -0.20867157
2184, 3382329042, -124.7996597290039, 82.24114227294922, 95.93933868408203, 0.005752832, -0.25455734, -0.1707735
2187, 3382379043, -124.9537353515625, 82.25232696533203, 95.86813354492188, 0.052174013, -0.15587212, -0.14089775
2190, 3382429044, -124.65888977050781, 82.25215148925781, 96.0921401977539, 0.030198835, -0.117774226, -0.15211773
2193, 3382479045, -124.26628875732422, 82.28759002685547, 96.20356750488281, 0.098098606, -0.20073889, -0.19584465
2199, 3382579047, -124.28709411621094, 82.35907745361328, 95.96277618408203, 0.090292975, -0.26448265, -0.24037743
2202, 3382629048, -124.47186279296875, 82.35681915283203, 95.72322082519531, -0.0148268435, -0.16961773, -0.16308403
2206, 3382695716, -123.86429595947266, 82.39540100097656, 96.02908325195312, -0.10114196, -0.17470029, -0.14342785
2209, 3382745717, -123.2258071899414, 82.42959594726562, 96.52552032470703, 0.15010074, -0.24773684, -0.33116722
2212, 3382795718, -123.15877532958984, 82.43094635009766, 96.61466979980469, 0.16700357, -0.31490684, -0.21504211
2218, 3382895720, -123.62281799316406, 82.435791015625, 96.09176635742188, 0.024597991, -0.16001125, -0.21168709
2221, 3382945721, -123.43437194824219, 82.52654266357422, 96.11697387695312, 0.1186295, -0.28292057, -0.28427315
2225, 3383012389, -123.64654541015625, 82.57022857666016, 96.01752471923828, 0.07878832, -0.22675858, -0.17874718
2228, 3383062390, -124.0132064819336, 82.6128158569336, 95.64861297607422, 0.057063974, -0.17759468, -0.18881607
2231, 3383112391, -124.18543243408203, 82.65484619140625, 95.3341064453125, 0.07649759, -0.13946684, -0.1345396
2234, 3383162392, -123.89187622070312, 82.71562957763672, 95.26103210449219, 0.0796347, -0.15554859, -0.17153263
2237, 3383212393, -124.01030731201172, 82.80118560791016, 94.70178985595703, 0.02027704, -0.17191164, -0.23801613
2240, 3383262394, -125.00993347167969, 82.90138244628906, 93.22835540771484, -0.094943054, -0.09902775, -0.15578079
2243, 3383312395, -126.92615509033203, 82.85677337646484, 90.8973617553711, -0.25174835, -0.050336793, 0.017006874
2247, 3383379063, -125.87198638916016, 82.60307312011719, 91.02047729492188, -0.26823622, -0.020839566, 0.0947361
2253, 3383479065, -115.76396179199219, 82.12428283691406, 99.43839263916016, 0.05051063, -0.22722808, -0.44703007
2256, 3383529066, -110.2502212524414, 81.78632354736328, 104.19710540771484, 0.38139486, -0.53813183, -0.30583477
2262, 3383629068, -103.71328735351562, 81.4538345336914, 109.99916076660156, 0.5131638, -0.42991364, -0.36578846
2265, 3383679069, -102.2480239868164, 81.5133285522461, 111.44002532958984, 0.33512864, -0.22566415, -0.30441856
2269, 3383745737, -101.51091003417969, 81.73052978515625, 111.94187927246094, 0.013097803, 0.004459419, -0.3210497
2272, 3383795738, -102.35108947753906, 81.84999084472656, 110.9261245727539, -0.1490723, 0.005099336, -0.22198868
2275, 3383845739, -104.41968536376953, 81.8493423461914, 108.74554443359375, -0.16052225, -0.043196786, -0.16097641
2284, 3383995742, -106.54489135742188, 81.39920043945312, 105.81134033203125, -0.022040445, -0.11299563, -0.204113
2288, 3384062410, -106.72879791259766, 81.09391021728516, 104.97835540771484, -0.099321276, -0.096802905, -0.25325584
2291, 3384112411, -106.17838287353516, 80.8002700805664, 104.77440643310547, -0.19612846, -0.03829794, -0.107515335
2297, 3384212413, -103.89028930664062, 80.27684020996094, 105.39020538330078, 0.10230171, -0.48433882, -0.03741741
2300, 3384262414, -103.13263702392578, 80.13873291015625, 105.99079132080078, 0.09370395, -0.5058725, -0.13247395
2303, 3384312415, -102.42740631103516, 80.1243667602539, 106.87211608886719, 0.12116274, -0.45925677, -0.19764423
2306, 3384362416, -101.49435424804688, 80.16446685791016, 107.92707061767578, -0.022072127, -0.25668395, -0.11782837
2313, 3384479085, -96.78058624267578, 80.37471771240234, 112.71607971191406, 0.16307701, -0.3634724, -0.3001318
2316, 3384529086, -94.7562484741211, 80.53475189208984, 114.96723175048828, 0.082240365, -0.034400545, -0.2257843
2319, 3384579087, -93.52753448486328, 80.62193298339844, 116.48271942138672, 0.0324564, -0.014042984, -0.106012344
2322, 3384629088, -92.77686309814453, 80.57999420166016, 117.61502838134766, -0.07279672, 0.20080638, -0.07965946
2325, 3384679089, -92.1327133178711, 80.52275848388672, 118.33505249023438, -0.027800541, -0.17079228, -0.14200974
2328, 3384729090, -91.8618392944336, 80.45054626464844, 118.60836791992188, -0.049364008, -0.24747142, -0.214674
2335, 3384845759, -91.9903564453125, 80.44612121582031, 119.03365325927734, 0.012554946, -0.24755825, -0.18715286
2338, 3384895760, -92.2934799194336, 80.48277282714844, 119.0070571899414, -0.03463523, -0.14139463, -0.07032013
2341, 3384945761, -92.09457397460938, 80.50373840332031, 119.2830810546875, 0.0024402586, -0.12381612, -0.20630074
2344, 3384995762, -91.76156616210938, 80.5167007446289, 119.65892028808594, 0.11117954, -0.045840494, -0.27867413
2347, 3385045763, -92.1860580444336, 80.53511047363281, 119.31790161132812, -0.0038823641, -0.104802765, -0.1685381
2350, 3385095764, -92.58635711669922, 80.52342224121094, 118.9864730834961, 0.0063695046, -0.23296587, -0.20328236
2354, 3385162432, -93.20242309570312, 80.514404296875, 118.39130401611328, 0.028046908, -0.13704808, -0.15583134
2357, 3385212433, -93.40396881103516, 80.47422790527344, 118.12786102294922, -0.09691762, -0.18808995, 0.003891945
2360, 3385262434, -92.97543334960938, 80.4390869140625, 118.49559020996094, 0.00960234, -0.15873745, -0.17893028
2366, 3385362436, -92.64585876464844, 80.3145523071289, 118.74307250976562, -0.02139846, -0.29092246, -0.13952923
2369, 3385412437, -92.37030792236328, 80.28327178955078, 118.96084594726562, 0.07578017, -0.21477985, -0.22139072
2373, 3385479105, -92.087158203125, 80.28030395507812, 119.22465515136719, 0.0665602, -0.18387718, -0.22691059
2376, 3385529106, -92.02454376220703, 80.27368927001953, 119.2842025756836, 0.01572436, -0.19952722, -0.21048355
2379, 3385579107, -91.99601745605469, 80.28705596923828, 119.28800964355469, -0.015742911, -0.15767275, -0.20848942
2382, 3385629108, -91.93138885498047, 80.29996490478516, 119.26981353759766, 0.012911337, -0.17923068, -0.20603943
2385, 3385679109, -92.01847839355469, 80.30403900146484, 119.17841339111328, 0.07860621, -0.18732777, -0.14806843
2388, 3385729110, -92.14547729492188, 80.31753540039062, 119.01625061035156, 0.016023029, -0.18687192, -0.10185814
2391, 3385779111, -91.98223876953125, 80.31432342529297, 119.1326675415039, 0.002637453, -0.1724579, -0.20549393
2395, 3385845779, -91.7927474975586, 80.32452392578125, 119.2846908569336, -0.036849856, -0.18342814, -0.11401272
2401, 3385945781, -91.72161865234375, 80.26641845703125, 119.32579803466797, 0.078381635, -0.210629, -0.08307934
2404, 3385995782, -91.4458236694336, 80.24966430664062, 119.55665588378906, 0.1400707, -0.09787856, -0.2554674
2407, 3386045783, -91.10807800292969, 80.28339385986328, 119.84669494628906, 0.119624354, -0.12014805, -0.35949993
2410, 3386095784, -91.51377868652344, 80.3228988647461, 119.51908874511719, -0.16324693, -0.10809511, -0.17182922
2413, 3386145785, -91.92335510253906, 80.3758544921875, 119.00096893310547, -0.15205525, -0.3358328, -0.06764221
2417, 3386212453, -91.91570281982422, 80.40204620361328, 118.9652328491211, 0.060752608, -0.16570848, -0.19557667
2420, 3386262454, -91.82563781738281, 80.39781951904297, 118.99271392822266, 0.17820358, -0.17869268, -0.1793232
2423, 3386312455, -91.86295318603516, 80.39798736572266, 118.92423248291016, 0.056598566, -0.15228395, -0.15633488
2426, 3386362456, -91.91839599609375, 80.42794036865234, 118.79740142822266, -0.07237713, -0.09271195, -0.17264652
2429, 3386412457, -92.05850982666016, 80.41487121582031, 118.5696029663086, -0.099678956, -0.20072168, -0.11449051
2436, 3386529126, -91.91468048095703, 80.39208984375, 118.5501708984375, 0.0914653, -0.2248671, -0.18928337
2439, 3386579127, -91.974853515625, 80.38902282714844, 118.51323699951172, -0.008799314, -0.17369996, -0.17835236
2442, 3386629128, -92.00419616699219, 80.38919067382812, 118.41769409179688, -0.026999807, -0.15240142, -0.21116257
2445, 3386679129, -92.04446411132812, 80.38219451904297, 118.3630142211914, 0.062431414, -0.2066299, -0.09767914
2448, 3386729130, -91.99935150146484, 80.367431640625, 118.42359924316406, 0.008971028, -0.1458564, -0.13178158
2451, 3386779131, -91.77567291259766, 80.33226776123047, 118.56029510498047, 0.054589964, -0.19643424, -0.20347309
2454, 3386829132, -91.51093292236328, 80.31172943115234, 118.72315216064453, 0.10620173, -0.30374348, -0.14338017
2458, 3386895800, -91.47998046875, 80.3391342163086, 118.74468231201172, -0.16410151, -0.11399038, -0.13687897
2461, 3386945801, -91.3047866821289, 80.34522247314453, 118.82431030273438, -0.08238316, -0.08995178, -0.11975098
2464, 3386995802, -91.1478042602539, 80.34435272216797, 118.90898132324219, -0.01401091, -0.06633384, -0.20226383
2470, 3387095804, -91.45025634765625, 80.34484100341797, 118.61771392822266, -0.006992938, -0.18226732, -0.16738796
2473, 3387145805, -91.54157257080078, 80.36832427978516, 118.46647644042969, 0.028804617, -0.20114245, -0.21282864
2477, 3387212473, -91.58198547363281, 80.38127136230469, 118.34203338623047, 0.08170203, -0.22470506, -0.088757515
2480, 3387262474, -91.20892333984375, 80.39086151123047, 118.58586883544922, 0.06488408, -0.13833272, -0.19543171
2483, 3387312475, -90.33370208740234, 80.3805160522461, 119.26068878173828, 0.27122876, -0.04331223, -0.23861217
2486, 3387362476, -89.57586669921875, 80.35221099853516, 119.88101196289062, 0.011481665, 0.1803896, -0.18057251
2489, 3387412477, -88.43318176269531, 80.17149353027344, 120.20477294921875, -0.24755761, 0.18724507, -0.25762844
2492, 3387462478, -88.45320129394531, 79.76068878173828, 119.27845001220703, -0.20844097, 0.13997482, 0.22413063
2499, 3387579147, -87.16496276855469, 78.82661437988281, 118.04703521728516, 0.09429987, -0.38294592, -0.31252956
2502, 3387629148, -87.36119842529297, 78.44812774658203, 117.69721984863281, -0.004993922, -0.26824304, -0.2154007
2508, 3387729150, -87.42805480957031, 77.89989471435547, 116.74003601074219, 0.049187966, -0.40003794, -0.19791889
2511, 3387779151, -87.28607940673828, 77.70093536376953, 116.38194274902344, 0.12035592, -0.43888858, -0.14921379
2514, 3387829152, -86.78868865966797, 77.57528686523438, 116.50556945800781, 0.10911232, -0.41175, -0.22675896
2517, 3387879153, -86.24188995361328, 77.52989196777344, 116.95457458496094, 0.0640404, -0.22259074, -0.12071228
2524, 3387995822, -76.87979125976562, 75.89767456054688, 122.27864837646484, -0.555279, 2.297914, 1.2703857
2527, 3388045823, -66.42144012451172, 72.44667053222656, 127.00287628173828, -1.0236108, 1.9539621, 2.3623924
2530, 3388095824, -59.46009826660156, 66.12088012695312, 129.5238494873047, -1.1157693, 1.4631414, 2.7907887
2533, 3388145825, -56.94569396972656, 57.8426399230957, 130.44644165039062, -1.043983, 1.5802941, 2.5251188
2536, 3388195826, -55.70780944824219, 49.1402702331543, 130.95790100097656, -1.2026978, -0.45016566, 0.16932964
2543, 3388312495, -53.822593688964844, 31.799448013305664, 132.1144256591797, -0.32230335, -1.9139822, -1.5562735
2546, 3388362496, -53.351356506347656, 26.691171646118164, 133.0018310546875, -0.45990556, -2.1666157, -1.750185
2549, 3388412497, -52.34194564819336, 23.008140563964844, 134.29812622070312, -1.2149489, -0.31639165, -1.5898352
2552, 3388462498, -51.04255294799805, 20.754669189453125, 135.5638885498047, -1.0778286, -1.6577774, -1.0400591
2555, 3388512499, -50.63721466064453, 19.59234046936035, 136.91990661621094, -0.0662018, -0.8393406, -0.65797806
2558, 3388562500, -50.36111068725586, 19.031307220458984, 138.15945434570312, 1.2980876, -1.0282116, -0.27532482
2562, 3388629168, -49.83114242553711, 18.673337936401367, 140.43133544921875, 1.6162301, -0.3258898, -0.92392063
2565, 3388679169, -50.46123123168945, 18.26735496520996, 141.72091674804688, 1.4187102, -0.11697171, -0.062101364
2568, 3388729170, -50.169437408447266, 17.489919662475586, 143.13433837890625, 2.1741772, -2.1613145, 0.3089199
2571, 3388779171, -49.7906494140625, 15.849615097045898, 145.34066772460938, 1.5340147, -2.1933877, 0.55846024
2577, 3388879173, -51.868492126464844, 7.664066791534424, 152.41964721679688, -0.57121235, -1.1579387, 1.4488087
2580, 3388929174, -52.27486801147461, 1.8437769412994385, 156.4016571044922, -1.3341515, -0.79072034, 1.9774837
2584, 3388995842, -48.86851501464844, -6.88109016418457, 162.7749786376953, -2.1904507, 0.3155645, -0.577857
2587, 3389045843, -48.16743850708008, -13.21517562866211, 167.44590759277344, -0.54832274, -0.84487414, 0.7555542
2590, 3389095844, -46.85014724731445, -18.220081329345703, 174.21780395507812, 0.5677255, -1.5318346, -2.0046606
2596, 3389195846, -51.57603073120117, -22.91084098815918, -168.41697692871094, 1.0483724, 2.0033345, -1.5013914
2599, 3389245847, -54.45884704589844, -22.8627872467041, -160.3455810546875, 0.64146924, 2.3675063, -1.5732622
2602, 3389295848, -57.331939697265625, -21.588415145874023, -154.18252563476562, 1.1875426, 1.5422224, -2.0384207
2606, 3389362516, -53.81640625, -21.09684181213379, -155.50291442871094, 1.0289842, -6.4179254, -6.037877
2609, 3389412517, -55.93691635131836, -20.178510665893555, -154.98577880859375, 0.0012390441, 1.801917, 2.7468948
2615, 3389512519, -55.988258361816406, -18.517101287841797, -155.073486328125, 0.60673213, -0.67565745, 0.50852585
2618, 3389562520, -55.52406692504883, -18.279041290283203, -154.9744873046875, 0.17591023, -0.12160074, 0.32980728
2621, 3389612521, -55.314571380615234, -18.263622283935547, -155.30947875976562, 0.09992985, -0.35431865, -0.037819862
2625, 3389679189, -55.32525634765625, -18.038055419921875, -155.53587341308594, -0.033168595, -0.09106834, 0.12613201
2628, 3389729190, -55.35894775390625, -17.673112869262695, -155.63980102539062, 0.24899454, 0.13665953, 0.05551243
2631, 3389779191, -55.50533676147461, -17.400869369506836, -155.95803833007812, 0.051557064, 0.052470673, 0.22643566
2634, 3389829192, -55.28868865966797, -17.000511169433594, -156.42137145996094, 0.063982315, 0.5429296, -0.6056919
2637, 3389879193, -55.206298828125, -16.207441329956055, -157.7238311767578, 0.17739306, 2.1024957, -1.2640028
2640, 3389929194, -55.553688049316406, -14.166881561279297, -160.1171875, 0.81829095, 0.8907735, 0.5443945
2643, 3389979195, -54.5242805480957, -12.11344051361084, -162.9066162109375, 0.29764628, -0.16294055, -0.40606594
2650, 3390095864, -53.99452209472656, -8.09585189819336, -168.23770141601562, 0.63913417, -1.4172863, -0.024291039
2653, 3390145865, -54.15926742553711, -6.890288352966309, -169.65267944335938, 0.28600433, -1.2654307, 0.72535133
2656, 3390195866, -53.74073028564453, -5.989212989807129, -170.53054809570312, 0.39096797, -0.990351, 0.73776436
2659, 3390245867, -53.256927490234375, -5.661566257476807, -170.89784240722656, 0.21141292, -0.6597949, 0.0852108
2662, 3390295868, -53.150325775146484, -5.508890151977539, -171.07192993164062, 0.40488824, -0.09285986, 0.16166496
2666, 3390362536, -52.744388580322266, -5.302677154541016, -171.49398803710938, 0.7394185, 0.92057806, -0.055804253
2669, 3390412537, -51.97504806518555, -4.881772518157959, -172.3590850830078, 1.3191692, 1.5941126, -0.39988518
2672, 3390462538, -51.041141510009766, -4.15056037902832, -173.99302673339844, 1.3091378, 1.2285209, -0.48728275
2675, 3390512539, -50.09772872924805, -2.8244080543518066, -176.5126190185547, 1.8153265, 0.73266244, -0.53218746
2678, 3390562540, -47.51959228515625, -0.41784897446632385, -178.76034545898438, 1.4106299, -0.40844318, -2.4413686
2681, 3390612541, -44.55489730834961, 3.7640950679779053, 179.5006103515625, -0.27503505, -1.3894092, -3.73
2684, 3390662542, -45.59499740600586, 9.989657402038574, 176.74493408203125, -0.77088445, -0.58811635, -0.91798687
2688, 3390729210, -43.880409240722656, 20.742027282714844, 173.04856872558594, -0.8642188, -0.98948115, -1.8535504
2691, 3390779211, -44.60605239868164, 30.175642013549805, 169.3653106689453, -0.26513296, -0.96514, -0.89028454
2694, 3390829212, -47.144447326660156, 39.87152862548828, 165.03485107421875, 0.04976463, 0.70958203, 0.8190937
2697, 3390879213, -48.16337966918945, 49.777469635009766, 160.15704345703125, 1.1578116, -1.1118397, 1.6111927
2700, 3390929214, -51.23724365234375, 58.31430435180664, 154.26585388183594, 1.1802249, -0.5568279, 2.4932394
2706, 3391029216, -66.56171417236328, 70.00946044921875, 135.81625366210938, -0.5332517, -0.37541085, 2.1143847
2710, 3391095884, -80.0682373046875, 73.6232681274414, 122.04003143310547, -0.5298029, -0.5838044, 1.348568
2716, 3391195886, -91.05149841308594, 75.487548828125, 111.99128723144531, -0.6945877, -0.21965718, 0.064852715
2719, 3391245887, -91.89982604980469, 76.0185546875, 111.1588363647461, -0.68877393, -0.2658239, -0.31890392
2722, 3391295888, -92.96141815185547, 76.50321960449219, 110.2720947265625, -0.66397643, -0.23393206, -0.110349655
2725, 3391345889, -93.3736801147461, 76.93321990966797, 109.91409301757812, -0.5906058, -0.22725943, -0.11432552
2728, 3391395890, -92.7200927734375, 77.30134582519531, 110.85682678222656, -0.4712944, -0.1365158, -0.19958305
2732, 3391462558, -90.87723541259766, 77.62593841552734, 113.57463836669922, -0.66077775, 0.31797546, -0.034436226
2735, 3391512559, -88.72482299804688, 77.72360229492188, 115.89436340332031, -0.5078932, 0.295779, -0.25765514
2738, 3391562560, -87.09088134765625, 77.65690612792969, 117.61468505859375, -0.35794276, 0.35040066, -0.05187702
2741, 3391612561, -85.30458068847656, 77.50364685058594, 119.39988708496094, -0.031785022, 0.26925215, -0.26024055
2744, 3391662562, -83.84881591796875, 77.24553680419922, 121.16619110107422, 0.15319544, 0.10437071, -0.32781887
2751, 3391779231, -83.15116119384766, 76.77099609375, 122.5878677368164, 0.18212248, -0.015700947, 0.021600723
2754, 3391829232, -82.97005462646484, 76.57581329345703, 122.8853530883789, 0.10559308, 0.009847813, -0.01847744
2757, 3391879233, -81.87823486328125, 76.32538604736328, 123.86334991455078, 0.10769933, 0.028552104, -0.15307522
2760, 3391929234, -80.00263214111328, 76.01387023925781, 125.58832550048828, 0.025331197, -0.06866273, -0.23880482
2763, 3391979235, -77.67298126220703, 75.57571411132812, 127.6968765258789, -0.20241697, -0.013304944, 0.0062417984
2766, 3392029236, -74.75460052490234, 74.97331237792969, 130.2593994140625, -0.62030107, 0.83259267, 0.28468132
2773, 3392145905, -64.73656463623047, 71.87487030029297, 137.58595275878906, -0.6330139, 0.75893825, 0.09097099
2776, 3392195906, -61.99236297607422, 70.16356658935547, 138.92384338378906, -0.7103542, 0.73474264, 0.423707
2779, 3392245907, -58.43247985839844, 67.31529998779297, 140.8821258544922, -1.1668615, 1.0455279, 1.7960749
2782, 3392295908, -53.96378707885742, 62.35950469970703, 143.4085693359375, -2.192803, 0.53986037, 3.1023588
2788, 3392395910, -48.79912567138672, 45.721805572509766, 149.0071258544922, -1.4037306, -1.8013185, 2.3164082
2791, 3392445911, -47.820987701416016, 35.68208694458008, 152.05709838867188, -0.36146477, -2.381268, 1.0619602
2795, 3392512579, -46.54526901245117, 22.322843551635742, 156.5355987548828, 0.984941, -2.4205763, -0.50779915
2798, 3392562580, -45.77298355102539, 13.475469589233398, 160.15870666503906, 1.5774945, -2.07541, -0.8835621
2801, 3392612581, -45.24752426147461, 6.031408786773682, 164.41314697265625, 1.8105586, -2.5008366, -1.2937088
2804, 3392662582, -44.870849609375, -0.241903617978096, 169.71986389160156, 1.5863316, -2.9343457, -1.7250137
2810, 3392762584, -46.09063720703125, -9.150309562683105, -174.78875732421875, 2.7046196, -1.0939034, -2.7252188
2814, 3392829252, -49.60872268676758, -10.684167861938477, -162.61419677734375, -3.0241656, 21.54355, -7.5854454
2820, 3392929254, -47.45359420776367, -10.64955997467041, -163.49786376953125, 0.3515319, 5.9158206, 2.8400383
2823, 3392979255, -49.13328552246094, -9.677970886230469, -163.0448455810547, 0.78781223, -2.108975, 0.561841
2829, 3393079257, -48.62451171875, -9.113740921020508, -162.93190002441406, 0.17160258, 0.27417645, 0.531477
2832, 3393129258, -48.40386199951172, -9.275471687316895, -162.9151153564453, 0.19489603, 0.53479713, 0.58775043
2836, 3393195926, -48.335479736328125, -9.544243812561035, -162.8949737548828, 0.021244124, 0.019882832, 0.010152817
2839, 3393245927, -48.52178192138672, -9.633590698242188, -162.8990020751953, 0.2577053, 0.26765597, 0.046586037
2842, 3393295928, -48.55179214477539, -9.626204490661621, -162.89100646972656, 0.014505544, 0.10226192, -0.24625874
2845, 3393345929, -48.58277130126953, -9.44206714630127, -163.12863159179688, 0.37553212, -0.18896677, -0.35478115
2848, 3393395930, -48.48157501220703, -8.968277931213379, -163.43588256835938, 0.366557, 0.46434164, -0.3140421
2854, 3393495932, -48.782188415527344, -7.272460460662842, -164.90225219726562, 0.25049767, 1.5022763, 0.30292606
2858, 3393562600, -47.92240905761719, -5.472646713256836, -167.00579833984375, 0.35982546, 1.1112679, -0.83475494
2861, 3393612601, -47.94083023071289, -3.6589908599853516, -169.4721221923828, 0.5503607, 1.678839, -0.055675507
2864, 3393662602, -47.26954650878906, -1.444201946258545, -172.6149139404297, 1.0585339, 1.5287286, -1.5796127
2867, 3393712603, -47.24879455566406, 1.405972957611084, -176.6046142578125, 1.9894927, 1.4493394, -0.9246206
2870, 3393762604, -46.14609909057617, 5.473681449890137, 178.74427795410156, 1.2957677, -0.19188896, -2.547163
2873, 3393812605, -47.5543212890625, 11.50998592376709, 173.59197998046875, 1.5298477, -1.0690076, -1.393774
2877, 3393879273, -48.55244445800781, 21.26715660095215, 167.66177368164062, -0.6106463, -2.3034792, -0.29407883
2880, 3393929274, -49.7927131652832, 28.99129867553711, 163.6792755126953, -0.17859203, -3.0590155, -0.7496948
2883, 3393979275, -52.856746673583984, 37.0382080078125, 160.5339813232422, 0.8034496, -3.1140711, 0.79080296
2886, 3394029276, -53.55731201171875, 45.1752815246582, 159.2965087890625, 0.40398407, -1.8743695, 1.0039349
2889, 3394079277, -54.459205627441406, 52.53203582763672, 158.339599609375, -0.49824736, -1.5986376, 1.4773264
2895, 3394179279, -58.21019744873047, 63.94293975830078, 155.87115478515625, -1.2283822, 0.58692247, 1.2377987
2899, 3394245947, -60.99869155883789, 69.3978500366211, 152.98529052734375, -0.80265313, 1.0600127, 0.9698086
2902, 3394295948, -64.15592193603516, 72.12354278564453, 149.44236755371094, -0.8755939, 1.1629342, 0.84633446
2905, 3394345949, -65.69367218017578, 74.0863037109375, 146.55441284179688, -0.14542879, 0.22145882, 0.4265337
2908, 3394395950, -67.28868865966797, 75.5897445678711, 144.6205291748047, -0.4568303, 0.7179585, 0.37983513
2911, 3394445951, -70.30438232421875, 76.84300231933594, 141.30386352539062, -0.5834248, 0.34881198, 0.13175297
2914, 3394495952, -75.0698471069336, 77.8792724609375, 136.66403198242188, -0.075116, -0.013255212, -0.20415783
2917, 3394545953, -82.53302764892578, 78.67928314208984, 130.1298828125, -0.055338565, 0.011129827, -0.39896393
2921, 3394612621, -92.37333679199219, 79.40805053710938, 121.7389144897461, 0.17434223, 0.36351287, 0.048202515
2924, 3394662622, -97.31299591064453, 79.70851135253906, 116.84355926513672, 0.01855789, 0.021226354, 0.012925148
2933, 3394812625, -105.00247955322266, 80.16815185546875, 108.02082824707031, -0.24446769, -0.029288244, -0.24438381
2936, 3394862626, -106.5822982788086, 80.25643920898438, 106.3145980834961, -0.22646092, -0.06370052, -0.28412437
2940, 3394929294, -107.15894317626953, 80.38681030273438, 105.54650115966797, -0.2638914, -0.024077822, -0.16356659
2943, 3394979295, -107.26256561279297, 80.49185943603516, 105.1773452758789, -0.19286375, -0.034563597, -0.094314575
2946, 3395029296, -107.5804443359375, 80.55945587158203, 104.6727294921875, -0.0031593556, 0.1161275, -0.13265324
2949, 3395079297, -107.73466491699219, 80.65518951416016, 104.53068542480469, -0.17011513, 0.28541487, 0.008710861
2952, 3395129298, -107.47212982177734, 80.70098876953125, 104.7073745727539, -0.012583444, 0.25271225, -0.24836159
2955, 3395179299, -107.01936340332031, 80.69475555419922, 105.2040786743164, -0.12742747, 0.30934954, -0.22762394
2958, 3395229300, -106.41300201416016, 80.6205062866211, 105.65640258789062, -0.083477706, 0.13139768, -0.26481247
2962, 3395295968, -105.67227935791016, 80.44681549072266, 106.20406341552734, 0.029071491, 0.041958857, -0.17728329
2968, 3395395970, -104.8307113647461, 80.28459167480469, 106.84961700439453, 0.028450238, -0.02720052, -0.20127201
2971, 3395445971, -104.38157653808594, 80.26937103271484, 107.1557388305664, 0.07016233, -0.037236363, -0.2799282
2974, 3395495972, -104.16204071044922, 80.27217102050781, 107.19886779785156, 0.049569137, 0.010844737, -0.15937519
2977, 3395545973, -103.77790832519531, 80.3125991821289, 107.34796142578125, -0.033499226, 0.037096445, -0.12787628
2980, 3395595974, -102.7203140258789, 80.34496307373047, 108.15699005126953, -0.0017698314, 0.10691251, -0.16245651
2984, 3395662642, -100.81669616699219, 80.32035827636719, 109.78581237792969, 0.03474411, 0.30665353, -0.21988487
2987, 3395712643, -99.15483093261719, 80.35478210449219, 111.12588500976562, 0.34709513, 0.08027412, -0.37807083
2990, 3395762644, -100.21622467041016, 80.43428802490234, 110.04075622558594, -0.24184689, 0.1237684, -0.22634792
2993, 3395812645, -101.83390045166016, 80.448974609375, 108.25836181640625, -0.3208134, 0.06142013, -0.024838448
2996, 3395862646, -102.1424560546875, 80.35482025146484, 107.76077270507812, -0.13862547, 0.08759484, 0.005176544
3003, 3395979315, -100.53927612304688, 80.2210693359375, 109.37991333007812, -0.13261744, 0.024348943, -0.1591587
3006, 3396029316, -100.15086364746094, 80.17179107666016, 109.81470489501953, -0.09987618, 0.21873364, -0.10754299
3009, 3396079317, -98.96489715576172, 80.13603973388672, 110.77224731445312, -0.005646021, 0.06340459, -0.31176376
3012, 3396129318, -98.25816345214844, 80.07615661621094, 111.44256591796875, -0.07109282, 0.12246454, -0.26426888
3015, 3396179319, -97.93449401855469, 80.0069808959961, 111.72418212890625, -0.028041348, 0.10839574, -0.2120781
3018, 3396229320, -97.70870208740234, 79.9264907836914, 111.88056945800781, -0.0071662166, 0.13600796, -0.18070602
3021, 3396279321, -97.13601684570312, 79.8531723022461, 112.3449478149414, 0.038812075, 0.04788128, -0.16788578
3025, 3396345989, -96.49787139892578, 79.75083923339844, 112.92919158935547, 0.076606885, 0.07887191, -0.25421047
3028, 3396395990, -96.32086944580078, 79.69828796386719, 113.14275360107422, 0.0050524822, 0.038071297, -0.1227293
3031, 3396445991, -96.57162475585938, 79.65286254882812, 112.86427307128906, 0.02593812, 0.12024159, -0.09732151
3034, 3396495992, -96.41361236572266, 79.61238861083984, 112.83871459960938, 0.033901524, 0.13324966, -0.16012383
3037, 3396545993, -95.7755126953125, 79.59931945800781, 113.20660400390625, 0.02604021, 0.049325287, -0.39309692
3040, 3396595994, -95.8447494506836, 79.5851058959961, 113.03337097167969, 0.03501389, -0.003949027, -0.31331635
3043, 3396645995, -96.31014251708984, 79.56137084960938, 112.45000457763672, -0.044016127, 0.016662555, -0.28275967
3047, 3396712663, -96.36500549316406, 79.57515716552734, 112.19866943359375, -0.0113470545, -0.046690404, -0.17639351
3050, 3396762664, -96.38401794433594, 79.62339782714844, 112.0291748046875, 0.01973435, -0.034288786, -0.22249508
3053, 3396812665, -96.58594512939453, 79.66688537597656, 111.6578140258789, -0.032628898, 0.10898827, -0.3608303
3056, 3396862666, -95.84107208251953, 79.74978637695312, 111.9892349243164, 0.084015444, 0.0724486, -0.41849422
3059, 3396912667, -95.57089233398438, 79.98970031738281, 111.94656372070312, -0.085608564, 0.060244005, -0.14757729
3066, 3397029336, -99.97881317138672, 80.76773071289062, 107.80257415771484, -0.3120901, 0.26886457, 0.18983555
3069, 3397079337, -101.39029693603516, 80.8615951538086, 106.67829895019531, -0.39500913, 0.3443217, 0.12273693
3072, 3397129338, -100.65763854980469, 80.74600219726562, 107.31256103515625, -0.23831402, 0.27447927, -0.26610756
3075, 3397179339, -98.99176025390625, 80.45420837402344, 108.76111602783203, -0.04762466, 0.08920391, -0.17385864
3078, 3397229340, -97.3909912109375, 80.10576629638672, 110.0345230102539, 0.1456195, 0.021815982, -0.23715496
3081, 3397279341, -96.10226440429688, 79.82923889160156, 110.962646484375, 0.2924512, -0.09000297, -0.2975235
3084, 3397329342, -95.47844696044922, 79.65873718261719, 111.36302185058594, 0.25797004, -0.10763401, -0.40749168
3088, 3397396010, -95.8079833984375, 79.6057357788086, 110.99334716796875, 0.1243366, -0.05802469, -0.20563698
3091, 3397446011, -96.30139923095703, 79.64119720458984, 110.34795379638672, 0.096376665, 0.0071859416, -0.1484518
3094, 3397496012, -96.33153533935547, 79.71050262451172, 110.14784240722656, 0.013014545, -0.005148956, -0.15058708
3100, 3397596014, -94.95682525634766, 79.82146453857422, 111.20499420166016, -0.21391562, 0.11125179, -0.1986885
3103, 3397646015, -93.52114868164062, 79.79610443115234, 112.38054656982422, -0.23179853, 0.16356136, -0.14207172
3106, 3397696016, -91.57950592041016, 79.69876861572266, 113.99334716796875, -0.2103184, 0.17792358, -0.0995245
3110, 3397762684, -88.37319946289062, 79.51986694335938, 116.56452941894531, -0.14108367, 0.09329386, -0.2018795
3113, 3397812685, -85.64010620117188, 79.28845977783203, 119.10669708251953, -0.22047368, 0.12081004, -0.21900463
3116, 3397862686, -83.27149200439453, 79.05463409423828, 121.3067398071289, -0.07850242, 0.08455394, -0.27448463
3119, 3397912687, -81.07022857666016, 78.7962875366211, 123.37801361083984, -0.16730022, 0.13778898, -0.07808018
3122, 3397962688, -78.28044128417969, 78.46392059326172, 125.89249420166016, -0.12179137, 0.0108089745, -0.0055618286
3125, 3398012689, -75.60784912109375, 78.13555145263672, 128.15475463867188, 0.03501311, -0.007378107, -0.07399368
3129, 3398079357, -72.04345703125, 77.68517303466797, 131.1343536376953, 0.038123123, 0.09389226, -0.17084694
3135, 3398179359, -67.07357025146484, 76.86955261230469, 135.9513702392578, -0.046847727, 0.02314974, -0.19495201
3138, 3398229360, -65.59915924072266, 76.55712890625, 137.64002990722656, -0.029552827, 0.09360298, -0.23697567
3141, 3398279361, -64.66405487060547, 76.3218765258789, 138.700927734375, -0.03177474, 0.1501698, -0.17496681
3147, 3398379363, -61.912269592285156, 75.57014465332031, 141.3001251220703, -0.13263586, -0.025264172, 0.0076389313
3151, 3398446031, -59.67616271972656, 74.34099578857422, 143.2331085205078, -0.4206789, 0.47887897, 0.13704014
3154, 3398496032, -57.56003952026367, 73.21405029296875, 144.34835815429688, -0.40840113, 0.09601373, 0.06443119
3157, 3398546033, -55.812599182128906, 71.80268859863281, 145.84519958496094, -0.7489657, 0.20314978, 0.6467781
3160, 3398596034, -54.47834014892578, 69.18594360351562, 147.91485595703125, -1.2873174, 0.5677146, 1.5763712
3163, 3398646035, -53.251441955566406, 64.69566345214844, 149.79722595214844, -1.3934036, -0.4444254, 2.2771387
3166, 3398696036, -52.81724548339844, 57.901126861572266, 152.0263671875, -0.70907706, -0.60527384, 2.0001106
3173, 3398812705, -54.84920883178711, 34.92606735229492, 155.24789428710938, -0.3424154, 0.6198543, 0.9906273
3176, 3398862706, -55.30807876586914, 24.319257736206055, 156.19979858398438, 0.47292876, 0.10520752, 0.027887344
3179, 3398912707, -56.508323669433594, 14.05984115600586, 157.1090545654297, 1.2863702, 0.07766398, -0.03305149
3182, 3398962708, -57.84330749511719, 4.430769920349121, 158.04417419433594, 1.4597563, -0.054403886, -0.6942854
3185, 3399012709, -59.15412521362305, -4.216442108154297, 159.39418029785156, 1.1382195, 0.14203507, -1.4171324
3188, 3399062710, -60.71971893310547, -11.595102310180664, 160.83160400390625, 0.8868573, 0.06417719, -1.5962515
3192, 3399129378, -62.8018684387207, -19.41328239440918, 162.78704833984375, 0.6322042, -0.106652744, -1.6070127
3195, 3399179379, -64.39423370361328, -23.81114959716797, 164.30247497558594, 0.83178014, -0.32104468, -1.3496695
3198, 3399229380, -65.67757415771484, -27.358701705932617, 165.81329345703125, 0.3837809, -0.16132663, -1.112505
3201, 3399279381, -66.6150131225586, -29.98723602294922, 167.29122924804688, 0.26805556, -0.41179788, -0.82629585
3204, 3399329382, -67.3492431640625, -32.1815071105957, 168.62966918945312, 0.0013609704, -0.096815504, -0.54069424
3207, 3399379383, -67.80220794677734, -33.97319030761719, 169.84678649902344, 0.15389325, -0.10068205, -0.25187778
3210, 3399429384, -68.15633392333984, -35.69635772705078, 170.89768981933594, 0.07236869, 0.05510399, -0.022004128
3214, 3399496052, -68.65279388427734, -37.721797943115234, 172.55479431152344, 0.47554615, -0.03785449, 0.055150986
3217, 3399546053, -69.09192657470703, -39.175804138183594, 174.1049041748047, -0.22935984, 0.31166473, -0.19467545
3220, 3399596054, -69.7082748413086, -40.417381286621094, 175.60952758789062, -0.3246623, 0.29315835, 0.012124062
3223, 3399646055, -70.12876892089844, -41.39921951293945, 176.84300231933594, 0.026994722, 0.23052248, 0.13206387
3226, 3399696056, -70.22976684570312, -42.21714401245117, 177.80450439453125, 0.18821724, 0.22297128, -0.05300331
3229, 3399746057, -70.32513427734375, -43.07954025268555, 178.54519653320312, 1.4335982, -0.017736424, 0.18657112
3236, 3399862726, -71.4275131225586, -47.54222869873047, -176.3654022216797, 0.20485851, 0.113559, 0.47141075
3239, 3399912727, -72.08453369140625, -49.67906188964844, -173.27978515625, -1.4280134, 0.96738374, -0.11364555
3242, 3399962728, -72.41419982910156, -50.85336685180664, -171.9116973876953, -1.3370534, 0.9513684, -0.14949799
3245, 3400012729, -72.20626831054688, -50.98680114746094, -171.9423065185547, -0.8267069, 0.7479206, -0.19835854
3248, 3400062730, -72.11752319335938, -50.506134033203125, -172.7413330078125, -0.45798346, 0.5308502, 0.12771034
3251, 3400112731, -72.02346801757812, -49.486873626708984, -173.60647583007812, -0.25610188, 0.100853905, 0.06337166
3254, 3400162732, -71.87981414794922, -48.45224380493164, -174.77415466308594, 0.1499102, 0.05332963, 0.20148468
3258, 3400229400, -71.39099884033203, -47.378604888916016, -176.49302673339844, 0.49367163, 0.07732034, 0.12113476
3261, 3400279401, -70.90448760986328, -46.70703125, -177.6230010986328, 0.5856307, -0.07305096, -0.31591892
3264, 3400329402, -70.43695831298828, -46.08879470825195, -178.49217224121094, 0.44697812, -0.148828, -0.22191525
3270, 3400429404, -69.58349609375, -44.751495361328125, -179.52513122558594, 0.15816185, -0.22979344, 0.43988228
3273, 3400479405, -69.22711944580078, -44.18391418457031, -179.63363647460938, 0.16761695, 0.011888654, 0.488719
3277, 3400546073, -69.09295654296875, -43.815521240234375, -179.57492065429688, 0.45730108, 0.19293247, 0.3325386
3280, 3400596074, -69.07542419433594, -43.818145751953125, -179.4447479248047, 0.03234188, 0.19339319, 0.107450485
3283, 3400646075, -69.04605865478516, -43.81529235839844, -179.54258728027344, 0.06246561, 0.27516618, 0.12557602
3286, 3400696076, -68.8822250366211, -43.667457580566406, -179.8094024658203, -0.04121037, 0.22107114, 0.08215046
3289, 3400746077, -68.77389526367188, -43.47249221801758, 179.83428955078125, -0.046263605, 0.2929125, -0.010293961
3295, 3400846079, -69.0712890625, -43.62504577636719, 179.5619354248047, 0.7330043, -0.08769179, 0.44200134
3299, 3400912747, -69.15982055664062, -44.35042953491211, -179.97561645507812, -0.2565407, 0.38119102, -0.2718916
3302, 3400962748, -69.23094940185547, -44.522926330566406, 179.8091278076172, -0.2386664, 0.38120776, -0.13671684
3311, 3401112751, -68.4793701171875, -44.06721496582031, 178.3056640625, 0.39842775, 0.009234494, 0.32334805
3314, 3401162752, -68.46581268310547, -44.31216049194336, 178.3861083984375, 0.09204207, 0.06784507, 0.13652611
3318, 3401229420, -68.53508758544922, -44.70829391479492, 178.5586700439453, 0.038837276, 0.090808675, 0.15234661
3321, 3401279421, -68.51227569580078, -44.993255615234375, 178.57701110839844, 0.041997693, 0.059034523, 0.22868538
3324, 3401329422, -68.3743667602539, -45.36311721801758, 178.50958251953125, 0.10150707, 0.030364068, 0.2599678
3327, 3401379423, -68.32522583007812, -45.77523422241211, 178.54232788085938, 0.085706994, 0.13571294, 0.2078085
3330, 3401429424, -68.38163757324219, -46.1220703125, 178.67808532714844, 0.13674523, 0.16200404, 0.04409218
3333, 3401479425, -68.58287048339844, -46.406253814697266, 178.94229125976562, -0.009325296, 0.13113338, 0.017091751
3336, 3401529426, -68.69734191894531, -46.51163101196289, 179.0757293701172, -0.07708861, 0.21917602, 0.06277084
3340, 3401596094, -68.73210906982422, -46.37427520751953, 178.90225219726562, 0.2759629, 0.09661152, 0.06597519
3346, 3401696096, -68.85885620117188, -46.37460708618164, 178.9375457763672, 0.2776391, -0.070194855, 0.25967026
3349, 3401746097, -68.94823455810547, -46.67605209350586, 179.20587158203125, 0.24818414, 0.054267716, 0.16176605
3352, 3401796098, -69.06771850585938, -47.103904724121094, 179.49407958984375, -0.04085001, 0.2089137, 0.0523777
3355, 3401846099, -69.19031524658203, -47.459259033203125, 179.65155029296875, 0.20626351, 0.30095723, 0.07533932
3358, 3401896100, -69.28047180175781, -47.7912712097168, 179.79620361328125, 0.2716858, 0.16945064, 0.068369865
3362, 3401962768, -69.4710693359375, -48.31740188598633, -179.8355712890625, 0.269002, 0.10517726, 0.2034607
3365, 3402012769, -69.55757141113281, -48.79016876220703, -179.51747131347656, 0.081855476, 0.11546814, 0.14201832
3368, 3402062770, -69.61878967285156, -49.25511932373047, -179.31890869140625, 0.03767903, 0.27971217, 0.13416195
3371, 3402112771, -69.63628387451172, -49.565040588378906, -179.3573760986328, 0.07367982, 0.3606087, 0.14020061
3374, 3402162772, -69.59796142578125, -49.760047912597656, -179.66268920898438, 0.17954679, 0.2540403, 0.30623722
3377, 3402212773, -69.56956481933594, -50.057273864746094, -179.941162109375, 0.6394056, 0.11006544, 0.07706356
3381, 3402279441, -69.88756561279297, -50.583221435546875, -179.68170166015625, -0.19422159, 0.23013754, 0.007966995
3384, 3402329442, -70.02272033691406, -50.66361999511719, -179.73236083984375, -0.697571, 0.10350885, 0.16424465
3387, 3402379443, -69.76625061035156, -50.32950210571289, 179.76260375976562, -0.2611275, 0.29159763, -0.034837723
3390, 3402429444, -69.52510070800781, -49.868648529052734, 179.02279663085938, 0.44370964, 0.2699855, 0.16660881
3393, 3402479445, -69.32266998291016, -49.5706672668457, 178.43588256835938, 0.190869, 0.18023828, 0.16983414
3396, 3402529446, -69.1574478149414, -49.3714714050293, 177.9029541015625, 0.19126652, 0.118335694, 0.034166336
3403, 3402646115, -68.60709381103516, -48.96598815917969, 177.02879333496094, 0.1493841, 0.1128865, 0.17285347
3406, 3402696116, -68.47756958007812, -48.78969192504883, 176.90072631835938, 0.12860847, 0.1880295, 0.12695885
3412, 3402796118, -68.51713562011719, -48.32597351074219, 176.96170043945312, -0.16307506, 0.1026885, 0.27161312
3415, 3402846119, -68.45536041259766, -47.956581115722656, 177.0218048095703, -0.15800063, 0.07426972, 0.24532795
3418, 3402896120, -68.4066390991211, -47.61289978027344, 177.00228881835938, -0.16290362, 0.25351527, 0.21802425
3421, 3402946121, -68.32087707519531, -47.16093826293945, 176.96438598632812, -0.07308147, 0.2195418, 0.15045357
3425, 3403012789, -68.3589096069336, -46.47394943237305, 176.76547241210938, 0.05333578, 0.21538597, 0.10937309
3428, 3403062790, -68.42357635498047, -45.942928314208984, 176.7964324951172, 0.035984244, 0.20286186, 0.18479443
3431, 3403112791, -68.56072998046875, -45.416202545166016, 176.8010711669922, 0.009204264, 0.17208168, 0.25262928
3434, 3403162792, -68.74990844726562, -44.99663543701172, 176.73619079589844, 0.4997553, 0.20090513, 0.040860176
3437, 3403212793, -68.73231506347656, -44.694297790527344, 176.76312255859375, 0.27089256, 0.17606266, -0.09867287
3440, 3403262794, -68.68331146240234, -44.493751525878906, 176.6774444580078, 0.28545013, 0.12500566, -0.023648262
3447, 3403379463, -68.24897766113281, -43.94449996948242, 176.43075561523438, 0.30436972, 0.05930564, 0.28093243
3450, 3403429464, -68.27190399169922, -43.80375289916992, 176.54257202148438, 0.2850092, 0.10088492, 0.2393732
3453, 3403479465, -68.4253921508789, -43.753753662109375, 176.802978515625, 0.16935398, 0.123439945, 0.11025715
3456, 3403529466, -68.47510528564453, -43.65876388549805, 176.98284912109375, -0.051166978, 0.21372639, -0.05034256
3459, 3403579467, -68.77983093261719, -43.37824630737305, 177.4402313232422, -0.17068365, 3.5957646E-4, 0.20581341
3462, 3403629468, -68.94952392578125, -42.784515380859375, 178.4636688232422, -1.1094972, -0.15024647, 0.35488987
3466, 3403696136, -69.30188751220703, -41.25154495239258, -179.7788543701172, -0.34271106, 0.006719973, 0.44164371
3469, 3403746137, -69.68363189697266, -39.53456497192383, -177.97776794433594, -0.6672582, 0.5660851, 0.08562946
3472, 3403796138, -70.3542709350586, -38.208065032958984, -176.80416870117188, 0.21960299, 0.50922513, 0.8018656
3475, 3403846139, -70.47596740722656, -36.81999588012695, -175.55345153808594, -0.73243487, 0.2512624, -0.48866844
3481, 3403946141, -71.35244750976562, -34.35670852661133, -173.76612854003906, -0.07937655, 0.10450278, 0.18257809
3484, 3403996142, -71.90410614013672, -33.408164978027344, -172.8804473876953, 0.97816586, 0.33474004, 0.9488058
3488, 3404062810, -72.47342681884766, -32.37702560424805, -171.5254669189453, -0.13223912, 0.2738189, -0.08827877
3491, 3404112811, -73.69622802734375, -31.43896484375, -170.66481018066406, 0.6673903, 0.45198917, 0.64367294
3494, 3404162812, -74.48530578613281, -30.687110900878906, -169.8885498046875, -0.259, 0.33218622, 0.5968561
3497, 3404212813, -73.99712371826172, -29.383806228637695, -169.21987915039062, -0.039744962, -0.094688475, -0.29049015
3500, 3404262814, -74.45933532714844, -28.38648796081543, -168.5972442626953, 0.7750412, -0.13442063, 0.17254066
3503, 3404312815, -74.86640167236328, -27.692203521728516, -167.92347717285156, 0.61994565, -0.28080818, -0.6207762
3507, 3404379483, -75.55628967285156, -27.121089935302734, -167.4156036376953, 0.26644042, -0.15783243, -0.8669138
3510, 3404429484, -76.03215026855469, -26.919836044311523, -167.34930419921875, 0.38285914, 0.45042345, 0.13073444
3516, 3404529486, -76.93412017822266, -26.3192195892334, -167.404052734375, 0.47909287, 0.51846296, 0.18323421
3525, 3404679489, -78.15875244140625, -24.486095428466797, -167.55731201171875, -0.40971842, 0.22887617, -0.013015747
3529, 3404746157, -78.7725830078125, -23.143800735473633, -168.04273986816406, -0.23375747, 0.13540334, -0.21637726
3532, 3404796158, -80.65482330322266, -23.961523056030273, -167.46507263183594, 5.8222017, 0.3241814, -3.1950092
3535, 3404846159, -79.29817962646484, -23.340444564819336, -167.0522003173828, -4.1118183, -1.573608, -4.85453
3544, 3404996162, -82.05169677734375, -20.331300735473633, -169.0840301513672, 0.10895425, -0.64505756, -0.1766882
3547, 3405046163, -81.69764709472656, -19.993545532226562, -169.31002807617188, -0.25169945, -0.5533145, -1.1385117
3554, 3405162832, -81.0308609008789, -18.74530792236328, -169.4593963623047, 0.6300411, 0.0027032914, -0.53271294
3557, 3405212833, -81.2558822631836, -18.13705825805664, -169.0629425048828, 0.09540428, 0.17201865, 0.118709564
3560, 3405262834, -81.57818603515625, -17.49414825439453, -168.8052520751953, -0.28959566, 0.5223998, 0.6302452
3566, 3405362836, -81.74153900146484, -16.281408309936523, -169.27984619140625, 0.0047073225, 0.42905748, 0.525012
3570, 3405429504, -81.84679412841797, -15.52686595916748, -169.62428283691406, 0.23910436, 0.04328687, -0.013776779
3573, 3405479505, -81.96150970458984, -14.314295768737793, -169.8961639404297, 0.9883964, 0.60433143, 1.2637634
3576, 3405529506, -82.21754455566406, -12.235244750976562, -169.63650512695312, 0.6155325, 0.20754568, -0.115366936
3579, 3405579507, -82.75146484375, -10.706284523010254, -169.4000244140625, -0.27247113, -0.07613128, -0.66223145
3582, 3405629508, -83.6907730102539, -10.36904525756836, -169.2975616455078, 0.2724302, 0.36665675, -0.9212465
3585, 3405679509, -83.64703369140625, -11.21511173248291, -169.1862030029297, 0.037817024, 0.1882301, -0.9993906
3588, 3405729510, -82.6693344116211, -12.608275413513184, -169.2838897705078, -0.23961578, 0.056881398, -1.2202978
3592, 3405796178, -81.04679107666016, -13.442069053649902, -170.02590942382812, -0.83981043, -0.23227192, -0.28584385
3598, 3405896180, -81.29662322998047, -13.019569396972656, -170.2118682861328, 0.318054, 0.021355916, 0.99040985
3601, 3405946181, -81.13841247558594, -13.281148910522461, -170.08920288085938, 0.36919624, 0.108598754, 0.67587566
3604, 3405996182, -80.62406921386719, -13.76162052154541, -169.99636840820312, -0.15383501, 0.19611932, 0.3191557
3610, 3406096184, -80.98165130615234, -14.414289474487305, -169.5879364013672, 0.25311548, 0.08355044, -0.16700935
3614, 3406162852, -81.56723022460938, -14.614113807678223, -169.2253875732422, 0.6027595, 0.29504237, -0.23844719
3620, 3406262854, -81.80479431152344, -15.063234329223633, -169.30665588378906, 0.30345806, 0.5188493, -0.061915398
3623, 3406312855, -81.9001693725586, -15.52180290222168, -169.6719207763672, 0.56134874, 0.45754144, -0.2851038
3626, 3406362856, -82.20848083496094, -16.400537490844727, -170.1529541015625, 1.2997732, 0.4610804, -0.23035717
3629, 3406412857, -82.10774230957031, -18.242544174194336, -170.47042846679688, 0.8331543, 0.23566438, 0.46511936
3632, 3406462858, -80.83312225341797, -20.585739135742188, -170.5809326171875, 0.6514057, -0.5261249, -0.7339401
3639, 3406579527, -78.51522827148438, -26.997562408447266, -170.55418395996094, -0.29449412, 0.10252135, 0.2535429
3642, 3406629528, -77.0405044555664, -29.00174903869629, -170.16162109375, -0.6069616, 0.3066603, -0.1253519
3645, 3406679529, -76.60014343261719, -30.479368209838867, -169.82489013671875, -0.34138045, 0.5130692, -0.10807896
3648, 3406729530, -76.59700012207031, -31.644588470458984, -169.3599853515625, 0.12786911, 0.37475812, -0.32969952
3651, 3406779531, -76.06790924072266, -32.445064544677734, -169.0532684326172, -0.7094823, 0.11366307, -0.03229904
3655, 3406846199, -75.44692993164062, -32.89654541015625, -169.14834594726562, -1.5451407, -0.11872274, 0.46217632
3658, 3406896200, -74.94526672363281, -32.67458724975586, -169.46572875976562, -1.7719612, 0.36226717, 0.401865
3661, 3406946201, -74.47594451904297, -31.475521087646484, -169.6674346923828, -1.2905824, 0.3436264, -0.44583607
3664, 3406996202, -74.58527374267578, -29.43168067932129, -169.74996948242188, -0.7146532, 0.36436623, -0.8767929
3667, 3407046203, -75.52275848388672, -27.19190216064453, -169.962890625, 0.050417412, 0.18849762, -0.38591862
3673, 3407146205, -77.05621337890625, -22.704429626464844, -170.28472900390625, 0.5412543, 0.119967476, 0.19886875
3677, 3407212873, -77.4201889038086, -20.248065948486328, -170.62310791015625, 0.42110792, 0.080069594, 0.3119011
3680, 3407262874, -77.6054458618164, -18.942232131958008, -170.85643005371094, 0.565219, 0.02410612, 0.43432903
3683, 3407312875, -77.84272766113281, -18.127769470214844, -170.98074340820312, 0.6018332, 0.1917814, 0.459033
3686, 3407362876, -77.8050765991211, -17.750818252563477, -170.95864868164062, 0.5332957, 0.2555018, 0.3025446
3689, 3407412877, -77.59024047851562, -17.86714744567871, -171.01109313964844, 0.40490615, 0.064577624, -0.41884995
3692, 3407462878, -77.58670043945312, -18.139694213867188, -171.2925262451172, 0.9065095, 0.4095275, -1.0227394
3695, 3407512879, -78.69705963134766, -19.08289337158203, -171.46498107910156, 1.7096477, 0.57026863, 0.80782413
3699, 3407579547, -77.0972671508789, -21.169836044311523, -171.55320739746094, 0.47656846, 0.40709862, -0.0012483597
3702, 3407629548, -76.2091293334961, -22.811548233032227, -171.76071166992188, -0.25131622, 0.27569124, 0.11297035
3708, 3407729550, -74.11136627197266, -24.602977752685547, -172.4616241455078, -1.0670649, 0.24792339, 0.25825882
3711, 3407779551, -73.64409637451172, -24.90605926513672, -172.86705017089844, -0.8355844, 0.15599933, 0.19500351
3714, 3407829552, -73.4249267578125, -25.0765380859375, -173.30567932128906, -0.45537964, 0.45551723, 0.3911581
3718, 3407896220, -73.13119506835938, -25.175628662109375, -173.8675537109375, -0.29647604, 0.2510416, 0.14653778
3721, 3407946221, -73.09667205810547, -25.211915969848633, -174.126708984375, -0.18419018, 0.13528533, 0.18895626
3724, 3407996222, -72.9715805053711, -25.313535690307617, -174.34201049804688, -0.039717052, 0.052736577, 7.0667267E-4
3727, 3408046223, -73.07164001464844, -25.44693946838379, -174.45252990722656, 0.14549688, 0.13246961, 0.13116169
3730, 3408096224, -72.9405517578125, -25.536325454711914, -174.39154052734375, -0.04661631, 0.1661925, -0.0934
3733, 3408146225, -72.95531463623047, -25.578134536743164, -174.3074493408203, -4.8329087E-4, 0.23575392, -0.010523796
3736, 3408196226, -73.05928802490234, -25.580923080444336, -174.25540161132812, 0.08038662, 0.26650366, 0.07656956
3740, 3408262894, -72.9905014038086, -25.537437438964844, -174.23435974121094, -0.027953787, 0.26165074, -0.036697388
3743, 3408312895, -73.0012435913086, -25.50603675842285, -174.286376953125, -0.035828862, 0.27714372, 0.11954403
3746, 3408362896, -72.93299865722656, -25.43050193786621, -174.39065551757812, -0.07618219, 0.29596326, 0.12459278
3749, 3408412897, -73.0177230834961, -25.359895706176758, -174.48812866210938, 0.060503043, 0.2802579, 0.1951437
3752, 3408462898, -73.01044464111328, -25.284324645996094, -174.49920654296875, -0.07337511, 0.1864972, 0.06841087
3755, 3408512899, -73.12316131591797, -25.256933212280273, -174.50326538085938, -0.013393818, 0.26079476, 0.25221252
3762, 3408629568, -73.0517578125, -25.53819465637207, -174.6724090576172, -0.09003621, 0.10834183, 0.25776005
3765, 3408679569, -72.9134292602539, -26.231298446655273, -175.17262268066406, 0.74784315, 0.23375317, 0.66971684
3768, 3408729570, -72.29446411132812, -27.928558349609375, -175.900390625, 0.79985946, -0.0773883, 0.17063046
3774, 3408829572, -70.39733123779297, -33.66522216796875, -177.74624633789062, 0.54189414, 0.31481564, -0.21533394
3777, 3408879573, -69.69599151611328, -37.274871826171875, -178.70761108398438, 0.11231554, 0.40577132, 0.110767365
3781, 3408946241, -68.33466339111328, -42.003173828125, 179.89671325683594, -0.12986103, 0.17624584, -0.45794392
3784, 3408996242, -67.3963623046875, -45.19147872924805, 178.71595764160156, -0.10618335, 0.40244815, -0.08023071
3787, 3409046243, -66.50127410888672, -47.70927429199219, 177.3706512451172, -0.06367521, 0.22560777, -0.6114054
3790, 3409096244, -65.34664916992188, -49.54104995727539, 176.1005401611328, -0.04522008, 0.57687736, -0.31121063
3793, 3409146245, -64.44578552246094, -50.61262893676758, 174.8839874267578, -0.32294458, 0.31194866, -0.28003407
3796, 3409196246, -63.53303909301758, -51.081382751464844, 173.39404296875, -0.14958549, 0.37075323, -0.13158703
3799, 3409246247, -62.63502883911133, -50.864479064941406, 172.27830505371094, -0.9130056, 0.24449523, 0.13324738
3803, 3409312915, -61.5572395324707, -49.35582733154297, 170.9434356689453, -1.2431186, 0.20884906, -0.3979187
3809, 3409412917, -59.257049560546875, -41.554569244384766, 166.59703063964844, -0.53112954, 0.37036473, -2.4101505
3812, 3409462918, -56.93988037109375, -32.17224884033203, 165.15565490722656, -0.62042606, 0.35644355, -4.315875
3815, 3409512919, -55.09437561035156, -18.67758560180664, 164.2935028076172, -0.035839185, 0.57709205, -4.5802636
3818, 3409562920, -54.351863861083984, -2.2236592769622803, 164.37770080566406, 0.7746695, 0.04665772, -1.483613
3821, 3409612921, -51.49574279785156, 14.160323143005371, 165.07713317871094, -1.5336592, 2.2380579, 1.7715464
3825, 3409679589, -47.04856491088867, 30.95961570739746, 163.5771942138672, -0.68662393, -0.36954916, -1.648838
3828, 3409729590, -45.79110336303711, 43.01565170288086, 161.77268981933594, 2.0682337, -2.6041498, 2.0319347
3831, 3409779591, -48.347801208496094, 53.04218673706055, 158.4854736328125, 0.9266434, -1.3022041, 4.11049
3834, 3409829592, -51.9402961730957, 60.95468521118164, 153.96875, 0.63176936, 0.15858261, 2.770094
3837, 3409879593, -57.230712890625, 66.8939437866211, 148.36605834960938, 0.03875209, 0.7502777, 2.7670565
3844, 3409996262, -68.78453826904297, 72.89620208740234, 136.37550354003906, -0.3546817, 0.14900066, 0.55016613
3847, 3410046263, -72.17317962646484, 73.84192657470703, 135.1019287109375, -0.2930774, 0.14613003, 0.3640213
3850, 3410096264, -72.51750946044922, 74.42843627929688, 137.0780029296875, -0.15725914, -0.2753123, -0.24421215
3853, 3410146265, -73.85028076171875, 75.17203521728516, 138.60519409179688, 0.117698096, -0.11805669, -0.60628605
3859, 3410246267, -75.62680053710938, 77.40189361572266, 141.9891357421875, -0.38032487, 1.2605511, 0.32909203
3862, 3410296268, -74.80042266845703, 78.26530456542969, 142.96450805664062, -0.8869624, 1.731751, -0.24476433
3866, 3410362936, -76.11068725585938, 78.74717712402344, 141.7112274169922, -0.91320264, 1.3715717, 0.034831047
3869, 3410412937, -76.73281860351562, 78.76693725585938, 140.80702209472656, -0.3302275, 0.3483483, -0.11456299
3875, 3410512939, -80.77957916259766, 78.48361206054688, 137.81048583984375, -0.35584682, 0.44775704, 0.089793205
3878, 3410562940, -81.75830841064453, 78.52957153320312, 136.23716735839844, 0.043376435, -0.15841079, -0.26728535
3888, 3410729610, -78.11295318603516, 78.86641693115234, 134.95730590820312, -0.22589588, -0.19366303, -0.18466854
3891, 3410779611, -77.40989685058594, 78.94438934326172, 135.48431396484375, -0.24585152, 0.03748044, -0.26098633
3894, 3410829612, -77.22089385986328, 79.0361557006836, 135.8072509765625, -0.13069904, 0.32735595, -0.24975872
3897, 3410879613, -77.29326629638672, 79.17122650146484, 135.9513702392578, -0.24273543, 0.4324452, 0.04117298
3900, 3410929614, -77.18959045410156, 79.24049377441406, 136.14483642578125, -0.09335723, 0.38118336, -0.13009834
3903, 3410979615, -77.31993103027344, 79.25385284423828, 136.15621948242188, -0.21248756, 0.5089493, -0.11856365
3907, 3411046283, -76.99822235107422, 79.13665008544922, 136.45664978027344, -0.14299434, 0.44313225, -0.23673153
3910, 3411096284, -76.83417510986328, 79.01570892333984, 136.5826416015625, -0.18723357, 0.40664423, -0.22053146
3913, 3411146285, -76.9264144897461, 78.87509155273438, 136.49098205566406, -0.19503269, 0.287516, -0.290967
3916, 3411196286, -77.56339263916016, 78.77809143066406, 135.91439819335938, -0.18358482, 0.25288266, -0.11300182
3919, 3411246287, -78.16217803955078, 78.67279815673828, 135.37527465820312, -0.21559472, 0.25756717, 0.012639999
3929, 3411412957, -76.65239715576172, 78.05636596679688, 136.7535400390625, -0.0949972, 0.13015406, -0.29140282
3932, 3411462958, -75.93781280517578, 77.86236572265625, 137.6360626220703, -0.007012607, -0.2748314, -0.27973557
3935, 3411512959, -74.1104507446289, 77.57759094238281, 140.98573303222656, 0.28853634, -1.1077093, -0.22838402
3938, 3411562960, -74.9062728881836, 77.44097137451172, 144.37921142578125, 0.68313867, 1.5051823, -0.4875431
3941, 3411612961, -81.51301574707031, 77.41914367675781, 141.73837280273438, -2.6223512, 2.975455, 1.4003181
3944, 3411662962, -80.14996337890625, 77.0351333618164, 141.8013458251953, -0.39489335, 1.5208771, -0.09701347
3948, 3411729630, -82.49519348144531, 76.24319458007812, 137.65928649902344, 0.46192488, 0.28906518, -0.80890846
3951, 3411779631, -86.26420593261719, 75.51950073242188, 133.4528045654297, 0.17467828, -0.21369794, -0.08779621
