sep=,
DeviceTag:,Xsens_5,,,,,,,,,,,,,,,,,
FirmwareVersion:,2.2.1,,,,,,,,,,,,,,,,,
AppVersion:,2022.0.1,,,,,,,,,,,,,,,,,
SyncStatus:,Synced,,,,,,,,,,,,,,,,,
OutputRate:,60Hz,,,,,,,,,,,,,,,,,
FilterProfile:,General,,,,,,,,,,,,,,,,,
Measurement Mode:,Sensor fusion Mode - Complete (Euler),,,,,,,,,,,,,,,,,
StartTime:,2023-05-17 15:23:43.750 +0200,,,,,,,,,,,,,,,,,
© Xsens Technologies B. V. 2005-2023,,,,,,,,,,,,,,,,,,,

PacketCounter,SampleTimeFine,Euler_X,Euler_Y,Euler_Z,FreeAcc_X,FreeAcc_Y,FreeAcc_Z
1, 3345961648, -84.06031799316406, 45.615631103515625, 30.621374130249023, 0.689378, -0.13387577, 0.29209423
2, 3345978315, -83.53936004638672, 44.45240783691406, 30.088973999023438, 0.1603606, 0.08835288, 0.08215618
3, 3345994982, -83.20499420166016, 43.3352165222168, 29.56878662109375, -0.16819674, 0.23016806, -0.38852978
4, 3346011649, -83.21636962890625, 42.22963333129883, 29.013622283935547, -0.55374277, 0.1606401, -0.50354004
5, 3346028316, -83.6184310913086, 41.11494445800781, 28.430160522460938, -1.1324561, -0.097592905, -0.2525587
6, 3346044983, -84.25076293945312, 40.05308151245117, 27.871726989746094, -1.860012, -0.38337255, 0.3027773
7, 3346061650, -84.91584777832031, 39.13360595703125, 27.402843475341797, -2.1805837, -0.21784243, 0.5065737
8, 3346078317, -85.50962829589844, 38.38108825683594, 26.985721588134766, -1.7806247, 0.09298184, 0.22154522
9, 3346094984, -86.0306396484375, 37.756690979003906, 26.486295700073242, -1.0474745, 0.4456674, -0.24147415
10, 3346111651, -86.48404693603516, 37.20012664794922, 25.77690315246582, -0.7436018, 0.59244275, -0.43949318
11, 3346128318, -86.78302764892578, 36.66743469238281, 24.839122772216797, -1.1924896, 0.4609007, -0.2366066
12, 3346144985, -86.86317443847656, 36.146724700927734, 23.754465103149414, -2.0309052, 0.25209847, 0.33597755
13, 3346161652, -86.74777221679688, 35.69023132324219, 22.649484634399414, -2.7004762, 0.21821213, 0.83144
14, 3346178319, -86.52357482910156, 35.34408187866211, 21.54685401916504, -2.7081776, 0.3687329, 0.95068455
15, 3346194986, -86.29219055175781, 35.101966857910156, 20.404747009277344, -2.376859, 0.5908954, 0.8756733
17, 3346228320, -86.16284942626953, 34.73540115356445, 17.884952545166016, -1.8180205, 0.87320346, 0.35365105
20, 3346278321, -86.92167663574219, 33.714996337890625, 14.034069061279297, -2.007081, 0.6020943, 1.8896427
26, 3346378323, -90.17667388916016, 32.821563720703125, 6.9004435539245605, 0.28435194, -0.1284301, 3.138114
30, 3346444991, -92.313232421875, 33.038204193115234, 4.258083820343018, 0.51700366, -0.30852968, 0.6680727
33, 3346494992, -93.55889892578125, 32.80534362792969, 3.5311481952667236, 1.3329325, -0.1908966, -0.30681705
36, 3346544993, -93.88542938232422, 32.73029327392578, 2.738189220428467, 1.7713283, 0.6005547, -0.12952423
39, 3346594994, -92.32936096191406, 32.43340301513672, 1.7592240571975708, 0.63580036, 0.8849714, -0.81476116
42, 3346644995, -90.82715606689453, 32.703487396240234, 0.9354202151298523, 0.5240556, 0.7207515, -1.3847265
45, 3346694996, -90.04084014892578, 32.972511291503906, 1.3628913164138794, -0.7253422, 0.13169518, -0.24289608
52, 3346811665, -89.8794937133789, 34.990478515625, 1.6560827493667603, 1.1100404, -0.16684794, -0.9785204
55, 3346861666, -90.42179107666016, 36.101646423339844, 0.6469452977180481, 1.94497, -0.25566128, -0.78625107
58, 3346911667, -90.8636474609375, 37.117027282714844, -0.07454951852560043, 0.6292158, -0.5934501, -0.5645771
61, 3346961668, -92.10454559326172, 38.58149337768555, -0.7391740083694458, 1.7611705, -0.67820805, -0.63325024
64, 3347011669, -93.30152130126953, 40.0101432800293, -1.5073920488357544, 1.476513, -0.78834134, -0.38764858
67, 3347061670, -93.68470001220703, 41.36915588378906, -1.9806272983551025, 0.69685864, -0.5264664, -0.2671194
70, 3347111671, -93.53704071044922, 42.66866683959961, -2.0322158336639404, 0.9352274, -0.60700846, -0.44288254
74, 3347178339, -93.06478118896484, 44.511531829833984, -1.6722168922424316, 1.4558984, 0.5187941, -0.55063343
77, 3347228340, -93.12626647949219, 46.169403076171875, -1.5298304557800293, 0.7648658, 0.8634078, -0.814908
80, 3347278341, -94.01341247558594, 48.134700775146484, -0.459648460149765, 1.2626466, 0.96928895, -0.6741667
83, 3347328342, -95.0851821899414, 50.12940216064453, 0.9314166903495789, 1.876824, 1.1215717, -0.64776707
86, 3347378343, -95.26081085205078, 52.444114685058594, 3.0373244285583496, -0.60866255, 0.27617976, -0.21594906
92, 3347478345, -99.90705871582031, 57.603328704833984, 5.905318260192871, -1.663223, -0.16791075, 0.8031502
96, 3347545013, -103.24296569824219, 60.584503173828125, 6.070941925048828, -0.8144776, -0.010705377, 0.68326473
99, 3347595014, -104.12825012207031, 61.09498596191406, 5.550531387329102, -2.924294, -1.2408712, 3.7976408
102, 3347645015, -103.17935180664062, 62.02321243286133, 7.664977550506592, -1.8888324, -1.6331947, 2.1852074
105, 3347695016, -103.43244934082031, 63.79805374145508, 8.599889755249023, 0.021232389, -0.29526374, -0.78656197
108, 3347745017, -103.4775390625, 64.36333465576172, 8.876763343811035, -2.9768574, 0.43386513, -1.9982295
111, 3347795018, -106.52741241455078, 64.90217590332031, 7.70061731338501, -1.1322196, 1.395701, -2.1650286
115, 3347861686, -110.19808959960938, 64.3026123046875, 4.834239959716797, -1.7068434, -0.45377243, -1.4229136
118, 3347911687, -111.32242584228516, 64.00603485107422, 5.2889790534973145, -2.9385848, -0.7109357, 0.16822529
121, 3347961688, -113.4705581665039, 64.64654541015625, 5.932492256164551, 0.7911733, -0.5283303, 0.12589169
127, 3348061690, -114.92037963867188, 65.31973266601562, 6.251445770263672, 0.4739989, -1.0584315, -0.4087782
130, 3348111691, -115.10111999511719, 65.52703094482422, 7.029941082000732, 0.47001556, -0.46850416, -0.038835526
133, 3348161692, -114.17632293701172, 65.5110855102539, 7.8114447593688965, -0.5440457, -0.37356496, -0.4361515
143, 3348328362, -110.94444274902344, 65.73700714111328, 13.4053373336792, 0.9979469, -0.614801, -0.5331316
149, 3348428364, -108.6010971069336, 65.44071960449219, 16.49056625366211, 0.50007457, -0.27476916, -0.2939272
152, 3348478365, -107.2574234008789, 65.30023956298828, 17.765045166015625, 0.6428878, -0.05891958, -0.2194128
156, 3348545033, -105.37812805175781, 65.03936767578125, 19.623668670654297, -0.27795848, -0.13909078, 0.392622
159, 3348595034, -103.48490905761719, 65.06935119628906, 21.79928207397461, 0.16880912, -0.19132017, -0.012745857
162, 3348645035, -101.2983169555664, 65.06271362304688, 23.954723358154297, 0.30001563, 0.24578469, 0.3149433
165, 3348695036, -98.72461700439453, 65.13481140136719, 26.10897445678711, 0.2449118, -0.3756694, -0.03548622
171, 3348795038, -95.06549835205078, 65.23521423339844, 27.7084903717041, 0.614607, 0.24694918, -0.3474369
174, 3348845039, -94.2674560546875, 65.11283111572266, 26.510223388671875, -0.3676789, 0.6403072, 0.24911976
178, 3348911707, -94.67504119873047, 64.79920959472656, 24.02704620361328, 0.093662545, 1.8821746, 0.18860245
181, 3348961708, -94.57505798339844, 64.60026550292969, 23.252696990966797, -1.1758776, 1.6440544, -0.028102875
184, 3349011709, -94.21653747558594, 64.58280181884766, 25.036489486694336, -1.5999397, 1.3007956, -0.3626089
187, 3349061710, -93.51647186279297, 64.7941665649414, 29.161653518676758, -0.51339865, 0.94337577, 0.06120491
190, 3349111711, -90.48743438720703, 64.97543334960938, 34.248870849609375, -0.30764782, 0.49078998, 0.079919815
193, 3349161712, -86.22119903564453, 65.05323791503906, 39.86882781982422, -0.3933505, -0.19936529, 0.10861492
196, 3349211713, -82.39950561523438, 65.15167999267578, 45.1368293762207, 0.12741177, -0.48280743, -0.22869873
200, 3349278381, -78.4710464477539, 65.54774475097656, 50.268733978271484, 0.47669256, -0.26833734, -0.09000778
206, 3349378383, -75.2266845703125, 66.8008041381836, 52.030601501464844, 0.8105502, -0.34413373, -0.24057484
209, 3349428384, -75.62052154541016, 67.58454132080078, 49.661842346191406, 0.8049284, -0.60301536, -0.14214611
212, 3349478385, -77.59381866455078, 68.40949249267578, 44.934608459472656, 0.60952395, -0.51382947, -0.20604801
215, 3349528386, -80.48420715332031, 68.9253921508789, 38.74159240722656, 0.16159295, -0.19209956, -0.076086044
219, 3349595054, -86.44523620605469, 68.98506164550781, 28.638282775878906, -0.25823122, -0.30814213, -0.16127205
222, 3349645055, -92.00122833251953, 68.37454986572266, 20.794677734375, -0.7654116, -0.18076174, -0.040908813
225, 3349695056, -98.19996643066406, 67.71385192871094, 13.113421440124512, -0.7363133, -0.35630646, 0.20197868
228, 3349745057, -102.76068115234375, 66.9178237915039, 6.480058670043945, -0.021837216, -0.31896728, 0.3545208
231, 3349795058, -106.26663208007812, 66.1816177368164, 0.19169031083583832, -0.4528606, -0.46542728, 0.011881828
234, 3349845059, -108.64080810546875, 65.61979675292969, -5.033576011657715, -0.080915935, -0.024247356, 0.0048713684
237, 3349895060, -110.37004089355469, 65.16043090820312, -9.900660514831543, -0.0701919, -0.11404927, -0.56297874
241, 3349961728, -111.60173034667969, 64.18502044677734, -15.350408554077148, -0.45881376, 0.5531986, -0.53587055
244, 3350011729, -112.34210968017578, 63.522003173828125, -18.046117782592773, -0.748942, 0.92914236, -0.3254652
247, 3350061730, -112.9214859008789, 63.183265686035156, -19.27299690246582, -0.6834226, 0.601641, -0.39673424
250, 3350111731, -113.45601654052734, 63.115211486816406, -19.831369400024414, -0.21011603, 0.5560332, 0.10775852
253, 3350161732, -113.39888000488281, 63.471187591552734, -20.257823944091797, -0.16405381, 0.34572178, 0.089263916
256, 3350211733, -113.56368255615234, 63.90864562988281, -20.48129653930664, -0.42938977, 0.259544, -0.27363682
259, 3350261734, -114.0735855102539, 64.39290618896484, -20.341604232788086, 0.08711105, -0.097383924, -0.16600895
263, 3350328402, -114.02955627441406, 64.75971984863281, -20.041851043701172, 0.16046979, 0.17680903, -0.11896324
269, 3350428404, -113.31012725830078, 65.31906127929688, -19.059179306030273, 0.19134475, 0.025889507, 0.09934139
272, 3350478405, -113.13939666748047, 65.52716827392578, -18.825031280517578, 0.09046441, -0.12565094, -0.17617416
275, 3350528406, -113.16808319091797, 65.65147399902344, -18.75248146057129, -0.10651309, -0.08439022, -0.2707367
278, 3350578407, -113.38009643554688, 65.69608306884766, -18.92665672302246, 0.11599559, 0.16653688, -0.13983822
281, 3350628408, -113.31599426269531, 65.74304962158203, -19.064912796020508, -0.14756347, 0.111241505, -0.1628313
285, 3350695076, -113.4374771118164, 65.78862762451172, -18.881498336791992, -0.12316458, -0.06737485, -0.19361687
288, 3350745077, -113.63434600830078, 65.84100341796875, -18.76678466796875, 0.15288867, -0.13775706, -0.08717632
291, 3350795078, -113.74011993408203, 65.86857604980469, -18.948331832885742, 0.07751049, -0.027704654, -0.20147896
294, 3350845079, -113.92378997802734, 65.92115783691406, -19.15863037109375, -0.2673975, 0.038977083, -0.250906
297, 3350895080, -114.19998168945312, 65.9710922241211, -19.21384620666504, 0.06829282, 0.027304118, -0.11036682
304, 3351011749, -114.63785552978516, 66.07322692871094, -19.569236755371094, 0.069711454, -0.03483874, -0.12054157
307, 3351061750, -114.88609313964844, 66.08800506591797, -19.7762451171875, -0.07293943, 0.036845442, -0.12975025
310, 3351111751, -115.11126708984375, 66.06332397460938, -20.06401252746582, -0.052498277, 0.0686862, -0.09433842
313, 3351161752, -115.25675201416016, 66.03402709960938, -20.30183219909668, -0.06143723, 0.043262273, -0.15389633
316, 3351211753, -115.45833587646484, 65.9625244140625, -20.586719512939453, -0.0073153554, 0.046233207, -0.2662983
319, 3351261754, -115.65137481689453, 65.86367797851562, -20.813175201416016, -0.12183468, 0.047247734, -0.13236237
322, 3351311755, -115.82714080810547, 65.79671478271484, -21.13898277282715, -0.06906148, 0.025560942, -0.097976685
326, 3351378423, -116.34402465820312, 65.74219512939453, -21.70595932006836, -0.09020379, -0.016747156, -0.22151661
329, 3351428424, -116.73690795898438, 65.68030548095703, -22.062679290771484, -0.08946709, 0.03915254, -0.14829159
332, 3351478425, -116.92445373535156, 65.66940307617188, -22.32822608947754, -0.10633428, -0.03253723, -0.16878414
338, 3351578427, -117.40349578857422, 65.74617004394531, -22.559171676635742, 0.04773812, -0.09419663, -0.17416668
341, 3351628428, -117.5830078125, 65.757568359375, -22.67438507080078, -0.0052892105, -0.0042404877, -0.20166206
345, 3351695096, -117.70055389404297, 65.78116607666016, -22.744298934936523, -0.093203105, 0.07745242, -0.15928459
348, 3351745097, -117.80516815185547, 65.7872543334961, -22.710067749023438, 0.0032594895, -0.023401136, -0.10638332
351, 3351795098, -118.06006622314453, 65.76298522949219, -22.719459533691406, -0.057196293, -0.106771246, -0.13862228
354, 3351845099, -118.43717193603516, 65.75487518310547, -22.78463363647461, 0.05246721, -0.113399744, -0.23486233
357, 3351895100, -118.64790344238281, 65.76306915283203, -22.771230697631836, 0.0012009351, -0.052577846, -0.19643307
363, 3351995102, -118.76934051513672, 65.83206176757812, -22.7215633392334, 0.010751197, -0.06425305, -0.105163574
367, 3352061770, -118.86175537109375, 65.89797973632812, -22.721406936645508, -0.08480802, -0.04134451, -0.10068226
370, 3352111771, -118.91743469238281, 65.97869110107422, -22.770790100097656, 0.06970184, -0.04340018, -0.14194393
376, 3352211773, -119.1238021850586, 66.02301788330078, -22.990461349487305, 0.004672762, 0.06596292, -0.12943268
379, 3352261774, -119.2771224975586, 66.00701141357422, -23.011436462402344, -0.17130859, 0.066891626, -0.14340687
382, 3352311775, -119.37361907958984, 65.99163055419922, -22.93450927734375, 0.04449383, -0.022879234, -0.084462166
385, 3352361776, -119.292724609375, 66.00513458251953, -22.71946907043457, -0.016837232, -0.07571479, -0.14772701
389, 3352428444, -119.10809326171875, 66.03378295898438, -22.379554748535156, -0.06964127, -0.0034843434, -0.20242214
392, 3352478445, -118.82202911376953, 66.12791442871094, -21.962543487548828, 0.005944327, 0.048431903, -0.22280216
395, 3352528446, -118.4049072265625, 66.25028228759766, -21.48280906677246, -0.1648151, 0.081198454, -0.3251171
398, 3352578447, -117.8983383178711, 66.46772766113281, -20.626516342163086, -0.21398795, 0.08328696, -0.24588871
401, 3352628448, -117.33836364746094, 66.76012420654297, -19.547414779663086, -0.056470733, -0.034142237, -0.09734154
404, 3352678449, -116.87460327148438, 66.99752807617188, -18.857254028320312, -0.05755794, -0.119689174, 0.006901741
408, 3352745117, -117.04705810546875, 67.18560791015625, -18.488420486450195, -0.11726764, -0.21511781, 0.040081024
411, 3352795118, -117.61759185791016, 67.24457550048828, -18.651975631713867, 0.07490299, -0.09114434, -0.16990852
414, 3352845119, -117.975341796875, 67.22589874267578, -18.907670974731445, 0.18002784, -0.20761806, -0.20678234
417, 3352895120, -118.41824340820312, 67.17859649658203, -19.59018898010254, -0.016880145, -0.15991391, -0.14122105
420, 3352945121, -119.08094787597656, 67.09626007080078, -20.47252082824707, -0.028086415, -0.06507245, -0.28521824
423, 3352995122, -119.83971405029297, 66.97203063964844, -21.480499267578125, 0.046965078, 0.10145404, -0.27683258
426, 3353045123, -120.5093994140625, 66.90028381347656, -22.44229507446289, -0.24402876, 0.06573404, -0.22363186
430, 3353111791, -121.46986389160156, 66.98704528808594, -23.42215919494629, -0.14916584, 0.28437465, -0.2943411
433, 3353161792, -122.01644134521484, 67.24971771240234, -23.819786071777344, -0.32912484, 0.19845045, -0.12288189
439, 3353261794, -122.45933532714844, 68.38875579833984, -23.6967716217041, 0.20032863, 0.0021157737, -0.023454666
442, 3353311795, -122.33363342285156, 68.88496398925781, -22.76567268371582, -0.13680401, -0.12314558, -0.25437164
445, 3353361796, -121.96110534667969, 69.48583221435547, -21.750980377197266, -0.010103679, 0.14538445, 0.01749897
448, 3353411797, -121.06062316894531, 70.14995574951172, -20.554006576538086, 0.08422594, -0.036584824, -0.16227055
452, 3353478465, -119.9299545288086, 70.78743743896484, -18.872314453125, -0.17808886, -0.16405404, -0.19290924
455, 3353528466, -119.57987976074219, 71.14173126220703, -18.268095016479492, 0.25922808, -0.08615329, -0.11600304
458, 3353578467, -119.24278259277344, 71.24617004394531, -17.86524772644043, -0.13498417, 0.050890323, -0.05969906
461, 3353628468, -118.69698333740234, 71.31230926513672, -16.99519920349121, -0.25080255, -0.15536587, -0.06753254
464, 3353678469, -118.11595153808594, 71.44903564453125, -16.402297973632812, 0.18297061, 0.058970317, -0.18226337
467, 3353728470, -117.38633728027344, 71.54790496826172, -15.92522144317627, 0.03135082, -0.1971125, -0.17947578
477, 3353895140, -117.37012481689453, 71.31928253173828, -16.437042236328125, -0.19562748, -0.055367958, -0.21708965
480, 3353945141, -117.83894348144531, 71.23177337646484, -16.976619720458984, -0.22061823, 0.006245846, -0.1816988
483, 3353995142, -118.25687408447266, 71.17838287353516, -17.29022789001465, -0.105245546, -0.07348793, -0.07897091
486, 3354045143, -118.539794921875, 71.1316146850586, -17.663471221923828, -0.026355308, -0.14139318, -0.032525063
489, 3354095144, -118.74317932128906, 71.06333923339844, -18.00711441040039, -0.1304435, 0.055378016, -0.1007576
493, 3354161812, -118.91460418701172, 70.94451141357422, -18.082618713378906, -0.079623364, -0.04112929, -0.18218994
496, 3354211813, -119.00865936279297, 70.84247589111328, -18.237619400024414, -0.009700015, 0.07886007, -0.16991806
499, 3354261814, -119.07588195800781, 70.65030670166016, -18.380617141723633, -0.2570864, 0.09361147, -0.12136173
502, 3354311815, -119.37523651123047, 70.3343734741211, -18.481008529663086, -0.26806447, 0.115597986, -0.03914547
505, 3354361816, -119.83717346191406, 69.98175811767578, -18.649272918701172, -0.08872548, -0.036509946, -0.04547119
515, 3354528486, -120.78675842285156, 68.70360565185547, -18.836610794067383, -0.49808666, 0.0096664885, 0.14489079
518, 3354578487, -121.31480407714844, 68.22894287109375, -18.35953140258789, 0.03350325, -0.18995406, -0.38900566
524, 3354678489, -122.95433807373047, 66.62852478027344, -19.207706451416016, -0.2625344, 0.51878, -0.2239008
527, 3354728490, -124.28176879882812, 65.39968872070312, -20.584131240844727, -0.2684554, 1.142007, 0.10210419
530, 3354778491, -125.76724243164062, 63.910587310791016, -21.989057540893555, -0.45951045, 1.1733918, -0.05255699
533, 3354828492, -127.4826431274414, 62.43806076049805, -23.498695373535156, -0.22421211, 1.1241571, 0.3059597
537, 3354895160, -130.0046844482422, 61.05361557006836, -25.697057723999023, 0.532643, 0.7234569, 0.13613605
540, 3354945161, -131.51995849609375, 60.17087936401367, -27.2575626373291, -0.017178535, 0.53473175, 0.46303368
543, 3354995162, -133.2341766357422, 59.67729568481445, -28.604917526245117, 0.6012568, 0.22906502, 0.61325455
546, 3355045163, -134.7432861328125, 59.37540817260742, -30.296096801757812, 1.0591617, 0.26517817, -0.5122738
552, 3355145165, -136.5140380859375, 58.952423095703125, -32.74154281616211, -0.4468405, -0.93763864, -0.6185322
556, 3355211833, -138.36541748046875, 59.220638275146484, -32.52583694458008, 0.62294894, -0.95837235, -0.9143038
559, 3355261834, -138.45291137695312, 59.33140182495117, -32.242637634277344, -0.33010373, -1.3355026, -0.91830635
562, 3355311835, -138.70205688476562, 59.748199462890625, -31.454036712646484, -0.18231583, -1.221781, -0.4314499
565, 3355361836, -139.14242553710938, 60.234859466552734, -30.66883659362793, 0.3016846, -1.4440428, -0.08797836
571, 3355461838, -139.1885223388672, 60.572200775146484, -30.50550651550293, -0.6842756, -0.9878206, -0.30719185
574, 3355511839, -139.5355987548828, 60.7228889465332, -30.2623348236084, 0.018451441, -0.9119067, 0.11398697
581, 3355628508, -138.5797882080078, 61.47428512573242, -30.13233184814453, 0.0036842758, -0.7033195, -0.32306576
584, 3355678509, -137.72402954101562, 61.57948303222656, -30.281368255615234, -0.16662276, -0.1474001, -0.2633257
587, 3355728510, -136.88478088378906, 61.38064956665039, -30.55849838256836, -0.33956233, 0.32545185, -0.291193
590, 3355778511, -136.1053924560547, 60.93462371826172, -30.548616409301758, -0.7939014, 0.4803785, -0.42420387
593, 3355828512, -135.7974395751953, 60.477874755859375, -30.300939559936523, -0.74894565, 0.65072197, -0.24380398
597, 3355895180, -135.99021911621094, 59.943607330322266, -30.258411407470703, -0.5225333, 0.8333853, 0.12540531
600, 3355945181, -136.32211303710938, 59.43647003173828, -30.345134735107422, -0.52742106, 0.8392147, 0.37744236
603, 3355995182, -136.88143920898438, 58.69988250732422, -30.853925704956055, -0.2038836, 1.2296337, 0.65365124
609, 3356095184, -137.77427673339844, 56.43708419799805, -32.986576080322266, -0.247727, 1.9080335, 1.9514265
615, 3356195186, -140.59043884277344, 55.17801284790039, -35.93808364868164, 1.5486166, 0.36906794, 0.38164997
619, 3356261854, -140.91085815429688, 54.86684799194336, -37.17071533203125, 0.48721185, 0.2374139, -0.46357918
622, 3356311855, -139.84107971191406, 55.2556266784668, -37.585655212402344, 0.41405374, 0.71604186, -1.0044165
634, 3356511859, -138.94029235839844, 57.157501220703125, -39.258914947509766, -0.8927423, -0.59495234, 0.9603977
637, 3356561860, -142.90548706054688, 58.43428421020508, -37.90872573852539, 1.9974595, -1.9320587, -0.30649376
641, 3356628528, -144.902587890625, 59.54119873046875, -37.68214797973633, 0.778192, -2.26391, -0.97581387
647, 3356728530, -144.5970916748047, 61.04405212402344, -40.63142395019531, -1.1233886, -1.6166126, -0.950058
650, 3356778531, -143.9177703857422, 61.611045837402344, -41.80970764160156, -1.3999887, -1.1696669, -0.091937065
653, 3356828532, -143.3341827392578, 62.071414947509766, -42.29478454589844, -1.4980116, -0.7916317, 0.45781994
656, 3356878533, -143.3489990234375, 62.52745056152344, -42.07712936401367, -0.26473612, -0.8282751, 0.3054285
659, 3356928534, -143.0398406982422, 62.78782653808594, -41.04460144042969, -0.7942145, -1.1297612, 0.36744118
663, 3356995202, -140.67539978027344, 63.154335021972656, -37.73634719848633, -0.3881079, -0.8400294, 0.2267704
666, 3357045203, -137.57986450195312, 63.47548294067383, -35.571876525878906, -0.8750912, -0.72680557, 0.13765621
672, 3357145205, -129.3634796142578, 63.156349182128906, -29.909624099731445, -0.78771853, -0.22751763, 0.07977867
675, 3357195206, -124.35856628417969, 62.28657150268555, -27.10688018798828, -1.0895529, 0.16902207, -0.22091293
678, 3357245207, -118.72023010253906, 61.16196823120117, -23.936887741088867, -0.7814726, 0.6765853, 0.9548731
685, 3357361876, -114.73312377929688, 57.54884719848633, -24.494823455810547, -0.39395052, 0.49559462, -1.1985569
688, 3357411877, -115.59315490722656, 56.28157043457031, -24.304162979125977, 1.7718583, 0.4377336, -0.67337036
691, 3357461878, -115.31605529785156, 54.85423278808594, -25.346830368041992, 0.05126247, 0.28471974, -1.0126238
694, 3357511879, -114.9206771850586, 53.874237060546875, -25.544567108154297, 0.24666622, 0.21283954, -0.6136122
697, 3357561880, -114.73281860351562, 53.7406005859375, -26.073272705078125, 1.2817357, -0.15595393, -0.2412653
700, 3357611881, -114.58482360839844, 53.65589141845703, -27.104049682617188, 0.009267741, -0.25118163, -0.6389532
704, 3357678549, -115.52620697021484, 53.79155731201172, -27.16143226623535, 0.7977429, -0.13682659, -0.077365875
710, 3357778551, -115.3443832397461, 53.94633865356445, -27.174802780151367, 0.3286653, 0.30119398, 0.48230648
713, 3357828552, -115.17665100097656, 53.65460968017578, -27.934505462646484, 0.36545753, 0.5459561, -0.35815716
716, 3357878553, -115.66592407226562, 53.185813903808594, -28.213512420654297, 0.19042186, 0.4622802, -0.55035305
719, 3357928554, -116.12222290039062, 52.65595245361328, -28.022930145263672, 0.3190167, -0.025228802, -0.03757286
722, 3357978555, -116.34003448486328, 52.205322265625, -28.1547794342041, 0.21584557, -0.47642815, -0.09936237
726, 3358045223, -116.63851165771484, 51.50864028930664, -28.64583969116211, 0.4447111, -0.4035153, -0.40364075
729, 3358095224, -116.68535614013672, 50.89627456665039, -29.13664436340332, 0.280014, -0.10971044, -0.5342865
732, 3358145225, -116.89546203613281, 50.3895149230957, -29.83794403076172, 0.52990764, -0.09551714, -0.3287382
741, 3358295228, -119.48960876464844, 49.229408264160156, -31.49247932434082, 0.60590005, -0.19717017, -0.2861843
745, 3358361896, -120.22053527832031, 49.2302360534668, -31.801555633544922, 0.20612499, 0.10977101, -0.3582964
751, 3358461898, -121.61434936523438, 49.92217254638672, -32.08334732055664, 0.4394998, -0.22101676, -0.42153645
754, 3358511899, -122.59051513671875, 50.51969909667969, -32.07860565185547, 0.47451288, -0.5420359, -0.5584564
757, 3358561900, -123.38682556152344, 51.35538101196289, -32.17152404785156, 0.42725933, -0.27957514, -0.10864067
763, 3358661902, -125.20852661132812, 53.5594596862793, -33.11611557006836, 0.89336276, -0.035939988, -0.791111
767, 3358728570, -126.17610931396484, 54.784061431884766, -34.92757797241211, 1.4035288, 1.1452652, -0.74395275
770, 3358778571, -127.2827377319336, 55.536991119384766, -37.211177825927734, 0.69311655, 1.6372262, -0.88168144
773, 3358828572, -129.8399200439453, 56.36540603637695, -39.0331916809082, -0.7249922, 0.685398, -0.66281223
776, 3358878573, -134.25515747070312, 56.90642547607422, -40.37626266479492, 0.09263182, -0.22766739, -0.6079302
779, 3358928574, -138.57327270507812, 57.51960372924805, -40.986080169677734, 0.38491502, -0.4897408, 0.09765148
782, 3358978575, -141.2108612060547, 58.35355758666992, -41.6458854675293, -0.5524419, -1.2519435, 0.88931084
786, 3359045243, -142.64599609375, 59.96236801147461, -42.81400680541992, -0.92865664, -1.3711089, 1.3776817
789, 3359095244, -143.9203338623047, 61.244407653808594, -44.54842758178711, -0.11670919, -1.2699888, -0.069981575
792, 3359145245, -145.33819580078125, 62.1623649597168, -45.826385498046875, -0.55504817, -1.2333325, -1.3708324
795, 3359195246, -146.74246215820312, 62.097415924072266, -47.04624557495117, -0.7764849, 0.15275344, -0.8592081
798, 3359245247, -147.04364013671875, 61.589393615722656, -47.4578742980957, -1.7231648, 0.50738895, 0.1807146
801, 3359295248, -148.419189453125, 61.50387954711914, -47.61445999145508, -0.40313143, -0.043742605, -0.6221657
804, 3359345249, -149.53062438964844, 61.234642028808594, -47.2772102355957, -0.42662418, -0.58120364, -0.82598305
808, 3359411917, -150.5190887451172, 60.256797790527344, -45.68365478515625, -0.76431376, -0.53436315, -0.41630173
811, 3359461918, -150.74136352539062, 60.13623809814453, -42.4908447265625, -1.6723692, -1.2457157, -0.5144539
817, 3359561920, -147.00527954101562, 61.55721664428711, -34.22801971435547, -0.2692218, -1.1997241, 0.6208992
820, 3359611921, -142.42991638183594, 62.969940185546875, -29.981122970581055, 0.08927085, -1.7782921, 0.6479931
823, 3359661922, -137.6072235107422, 64.23243713378906, -26.47768211364746, 0.42009664, -2.1002944, 0.63113785
826, 3359711923, -133.85203552246094, 65.0953369140625, -24.061885833740234, 0.6749922, -1.2550304, -0.6933508
830, 3359778591, -130.73204040527344, 65.2142333984375, -22.500696182250977, 0.066932075, 0.6704839, -0.21062946
833, 3359828592, -129.15086364746094, 64.92072296142578, -21.46734619140625, -0.78097886, 0.8301669, -0.030399323
836, 3359878593, -127.82601165771484, 65.02544403076172, -20.065486907958984, -0.022872305, 0.98166287, 0.11897373
839, 3359928594, -126.36135864257812, 65.29181671142578, -19.114574432373047, 0.042844526, 0.7778041, 0.39181328
842, 3359978595, -124.75208282470703, 65.5158462524414, -18.235519409179688, 0.004621354, 0.9112216, 0.14682484
845, 3360028596, -123.5433120727539, 65.54871368408203, -17.314659118652344, -0.24834703, 0.9802331, 0.16676235
852, 3360145265, -122.9769287109375, 64.8392333984375, -16.567155838012695, -0.317012, 0.9718129, -0.20659733
855, 3360195266, -123.42588806152344, 64.46139526367188, -16.436208724975586, 0.12019577, 0.77561253, -0.29102802
858, 3360245267, -123.66351318359375, 64.04890441894531, -16.672523498535156, -0.2060139, 0.8564172, 0.14940643
861, 3360295268, -124.10894775390625, 63.71161651611328, -17.5604190826416, 0.064645536, 0.77875847, 0.11416054
864, 3360345269, -124.97032165527344, 63.27128219604492, -18.809585571289062, -0.24093579, 0.6587441, -0.06096363
867, 3360395270, -126.78134155273438, 62.55862045288086, -20.356529235839844, -0.13841185, 0.85769475, -0.3013792
871, 3360461938, -129.4594268798828, 61.527767181396484, -21.397878646850586, -0.26152587, 0.8364526, 0.1447916
877, 3360561940, -131.67486572265625, 60.8395881652832, -20.942075729370117, 0.44037417, -0.35375062, -0.244277
880, 3360611941, -131.87635803222656, 60.66807174682617, -20.658849716186523, 0.3465509, -0.56993616, -0.4734335
889, 3360761944, -130.5215301513672, 61.17866897583008, -18.556779861450195, 0.30046767, -0.7254616, -0.535985
896, 3360878613, -128.8687744140625, 62.02595138549805, -17.108999252319336, 0.097891524, -0.5454921, -0.33653164
902, 3360978615, -128.0529022216797, 62.90377426147461, -16.98357582092285, -0.15822561, -0.3675237, -0.1673193
905, 3361028616, -127.76387786865234, 63.38215637207031, -17.01560401916504, 0.0025693933, -0.35664755, 0.04537201
908, 3361078617, -127.42208099365234, 63.765499114990234, -17.14768409729004, 0.111587726, -0.13705054, 0.088591576
911, 3361128618, -127.044677734375, 63.95429992675781, -17.535348892211914, -0.19486128, -0.045050602, 0.1374836
915, 3361195286, -126.63999938964844, 63.95372009277344, -18.242431640625, -0.22850187, 0.10757835, 0.22069359
918, 3361245287, -126.32101440429688, 63.96360397338867, -18.78630828857422, -0.21204148, 0.29857263, 0.17383003
921, 3361295288, -125.96464538574219, 64.05746459960938, -19.283939361572266, -0.04942732, 0.35740146, -0.14951801
924, 3361345289, -125.6422348022461, 64.07450103759766, -19.797590255737305, -0.19750711, 0.48777455, -0.07941437
927, 3361395290, -125.7217788696289, 64.15740966796875, -19.98114013671875, 0.04153817, 0.38175687, -0.38682652
934, 3361511959, -126.36019134521484, 64.32806396484375, -19.80823516845703, 0.29601654, -0.069872834, -0.4475956
937, 3361561960, -126.09770965576172, 64.53376770019531, -19.636262893676758, 0.35899702, -0.30567452, -0.37078953
940, 3361611961, -125.58267211914062, 64.72798156738281, -19.900222778320312, 0.114076205, -0.28891128, -0.059700966
943, 3361661962, -125.3359375, 64.89039611816406, -20.804929733276367, 0.08465084, -0.013733754, -0.023246765
946, 3361711963, -125.46543884277344, 64.93597412109375, -22.127153396606445, -0.1880989, 0.31694093, -0.14179707
949, 3361761964, -126.04999542236328, 64.88534545898438, -23.44424819946289, -0.20519057, 0.43832886, -0.26597786
952, 3361811965, -126.88056182861328, 64.84040069580078, -24.373313903808594, -0.2154448, 0.47822744, -0.33396244
956, 3361878633, -127.9694595336914, 64.84249114990234, -25.19029426574707, -0.27260646, 0.4068233, -0.08947945
959, 3361928634, -128.64349365234375, 64.91574096679688, -25.414262771606445, -0.16741702, 0.18179068, -0.08614159
965, 3362028636, -130.0008087158203, 65.05715942382812, -25.05082893371582, 0.13833027, -0.19482462, -0.011828423
968, 3362078637, -130.20504760742188, 65.11378479003906, -24.86275291442871, -0.063446835, -0.1369665, 0.053739548
974, 3362178639, -129.64761352539062, 65.49032592773438, -23.733264923095703, -0.122707605, -0.13214198, -0.19015598
978, 3362245307, -129.0840606689453, 65.77352142333984, -22.48955726623535, -0.31281745, -0.18923701, -0.13176346
981, 3362295308, -128.8108673095703, 66.02806854248047, -21.571863174438477, -0.11270574, -0.08073221, -0.16664028
984, 3362345309, -128.506591796875, 66.23772430419922, -20.55681800842285, -0.24167328, -0.20141266, -0.18291664
987, 3362395310, -128.25729370117188, 66.42266845703125, -19.41088104248047, 0.11177079, -0.36954403, -0.04006195
990, 3362445311, -128.3074493408203, 66.51612091064453, -18.532745361328125, -0.033374283, -0.44517455, 0.09313202
993, 3362495312, -128.88299560546875, 66.68582153320312, -18.191936492919922, 0.16289791, -0.2867432, -0.20750713
997, 3362561980, -129.11837768554688, 66.60916900634766, -19.019309997558594, -0.25709254, -0.1887321, 0.008824348
1003, 3362661982, -129.33831787109375, 66.42371368408203, -21.151857376098633, 0.13691007, -0.33361074, -0.13518047
1006, 3362711983, -129.6700439453125, 65.9581298828125, -22.53145980834961, 0.16543144, 0.19004166, -0.1825037
1009, 3362761984, -129.94659423828125, 65.42021942138672, -23.246389389038086, -0.5700417, 0.04265834, -0.32932377
1012, 3362811985, -129.9859161376953, 64.71023559570312, -23.280431747436523, -0.29663634, 0.35210666, -0.6463661
1015, 3362861986, -129.37843322753906, 64.41036224365234, -22.437421798706055, -0.45653448, 0.28177562, -0.90870476
1019, 3362928654, -126.60527801513672, 64.83802795410156, -20.404199600219727, -0.12008356, 0.35458407, -0.08120823
1022, 3362978655, -123.73023223876953, 65.54627227783203, -19.05927085876465, -0.75359094, 0.054088347, 0.09279251
1025, 3363028656, -121.96665954589844, 66.67857360839844, -17.71697998046875, -0.061599612, 0.028769024, -0.17978573
1028, 3363078657, -121.02669525146484, 67.66764831542969, -16.415462493896484, -4.0824641E-4, -0.18408526, -0.18131828
1031, 3363128658, -120.45649719238281, 68.4860610961914, -15.132000923156738, 0.22934698, -0.026697952, -0.059001923
1037, 3363228660, -119.3139419555664, 69.72688293457031, -13.390768051147461, -0.1513784, -0.061050553, 0.021810532
1041, 3363295328, -119.12236785888672, 70.22978973388672, -12.958693504333496, 0.30188397, 0.11909597, -0.15665054
1044, 3363345329, -119.15330505371094, 70.48233795166016, -13.124752044677734, -0.09696238, 0.06941731, -0.262002
1047, 3363395330, -119.37364959716797, 70.63995361328125, -13.317761421203613, 0.03365267, 0.044915374, -0.12927055
1050, 3363445331, -119.69550323486328, 70.78402709960938, -13.623414993286133, 0.022962902, 0.027732717, -0.0038499832
1053, 3363495332, -120.06246185302734, 70.7850112915039, -14.16374397277832, 0.119267404, -0.009474044, 0.065608025
1056, 3363545333, -120.43338012695312, 70.75670623779297, -14.730399131774902, -0.13437353, 0.07049554, -0.11010933
1060, 3363612001, -120.68763732910156, 70.75144958496094, -15.237878799438477, 0.109127074, 0.15808982, -0.29377842
1063, 3363662002, -120.46695709228516, 70.72309875488281, -15.544492721557617, -0.16643971, 0.011854457, -0.21372795
1066, 3363712003, -120.40555572509766, 70.6674575805664, -15.737435340881348, -0.14913231, 0.19803964, -0.05750084
1072, 3363812005, -120.8240966796875, 70.5968246459961, -15.640213012695312, -0.0473096, 0.002450896, -0.034104347
1075, 3363862006, -120.88615417480469, 70.59552001953125, -15.500499725341797, -0.042229645, -0.02605133, -0.16184235
1078, 3363912007, -120.91271209716797, 70.65637969970703, -15.244579315185547, -0.023095816, -0.011377703, -0.19089985
1082, 3363978675, -120.67237854003906, 70.75814819335938, -14.96150016784668, 0.014998389, 0.02659916, -0.1581049
1085, 3364028676, -120.3390121459961, 70.85490417480469, -14.747063636779785, -0.16327007, -0.048065342, -0.13663387
1088, 3364078677, -120.28265380859375, 70.94225311279297, -14.447958946228027, -0.15031056, 0.06891977, -0.17978382
1091, 3364128678, -120.33878326416016, 71.06155395507812, -14.009678840637207, -0.027382126, -0.086271085, -0.33426
1094, 3364178679, -120.35981750488281, 71.19827270507812, -13.676097869873047, -0.11649679, -0.10760967, -0.3064947
1097, 3364228680, -120.1734619140625, 71.41925048828125, -13.240657806396484, -0.23201886, -0.12781589, -0.1100893
1100, 3364278681, -120.00153350830078, 71.69315338134766, -12.918624877929688, 0.12812534, -0.07142491, -0.021317482
1107, 3364395350, -119.92807006835938, 72.62203979492188, -12.056428909301758, -0.022599284, 0.08999414, -0.304986
1110, 3364445351, -119.83478546142578, 73.09454345703125, -11.19807243347168, 0.03485394, -0.11380676, -0.32635593
1113, 3364495352, -119.89815521240234, 73.45590209960938, -10.356410026550293, -0.15360314, -0.13201457, 0.10339737
1116, 3364545353, -120.41385650634766, 73.71978759765625, -10.511337280273438, 0.20748988, 0.32083675, -0.025443077
1119, 3364595354, -120.60801696777344, 73.9389419555664, -10.56704044342041, 0.15636061, -0.18148984, -0.09082222
1123, 3364662022, -120.72599792480469, 73.88226318359375, -10.481038093566895, 0.040402982, 0.025575694, -0.05251217
1126, 3364712023, -120.34115600585938, 73.79515838623047, -10.037239074707031, -0.18091609, 0.1635384, -0.14336395
1132, 3364812025, -119.67155456542969, 73.68785095214844, -9.166277885437012, -0.11960581, -0.047139328, -0.23046589
1135, 3364862026, -120.14632415771484, 73.67781829833984, -9.496001243591309, -0.14984219, -0.0063254167, -0.21320152
1138, 3364912027, -120.67935180664062, 73.75452423095703, -9.930015563964844, -0.113207415, 0.022239987, -0.09271908
1141, 3364962028, -121.08348083496094, 73.79780578613281, -10.090821266174316, 0.13616745, -0.04802869, -0.11906052
1145, 3365028696, -121.64067077636719, 73.79157257080078, -10.552892684936523, -0.012435478, -0.14401007, -0.14463711
1148, 3365078697, -121.7150650024414, 73.75353240966797, -10.688709259033203, 0.10960818, -0.034983132, -0.23174667
1151, 3365128698, -121.809814453125, 73.7250747680664, -10.828062057495117, -0.23901816, -0.14062184, -0.089245796
1154, 3365178699, -121.92748260498047, 73.49957275390625, -11.056798934936523, 0.24940984, 0.053228717, -0.25949383
1157, 3365228700, -122.24332427978516, 73.3634033203125, -11.543941497802734, -0.3976585, -0.04777299, -0.113404274
1160, 3365278701, -122.67037963867188, 73.33769226074219, -12.207624435424805, 0.25738993, -0.15870425, -0.31744385
1163, 3365328702, -123.45999908447266, 73.26008605957031, -13.351534843444824, 0.011180565, -0.3646024, -0.17232323
1167, 3365395370, -125.03617858886719, 73.02405548095703, -15.328756332397461, -0.013499736, -0.026388833, -0.20278835
1173, 3365495372, -127.30838775634766, 72.79414367675781, -17.997665405273438, -0.22191337, 0.17608032, -0.16686344
1176, 3365545373, -128.1967315673828, 72.84027862548828, -18.707550048828125, -0.082615644, 0.24163628, -0.09169674
1179, 3365595374, -128.39511108398438, 72.93501281738281, -18.61951446533203, 0.034865674, 0.0818947, 0.04595375
1182, 3365645375, -128.17991638183594, 72.8709716796875, -17.879539489746094, 0.14404953, -0.06874901, 0.01863861
1186, 3365712043, -128.46697998046875, 72.33301544189453, -17.616918563842773, -0.20172368, 0.052609585, -0.12940598
1189, 3365762044, -129.01837158203125, 71.84337615966797, -18.184925079345703, -0.14086781, 0.28784603, -0.03394127
1192, 3365812045, -129.92063903808594, 71.3392333984375, -19.058820724487305, -0.36163637, 0.08690586, -0.13861752
1195, 3365862046, -131.27078247070312, 70.8609848022461, -19.805736541748047, -0.4356892, 0.12166354, 0.10346508
1198, 3365912047, -132.3820037841797, 70.44438171386719, -20.32707977294922, 0.12224817, 0.3561024, 0.22221279
1201, 3365962048, -132.4466094970703, 70.11125183105469, -20.278535842895508, -0.3507382, 0.09120715, -0.13689327
1208, 3366078717, -133.17202758789062, 69.56239318847656, -18.422853469848633, 0.479881, -0.3127087, -0.7946682
1211, 3366128718, -133.3015594482422, 69.3791732788086, -18.31409454345703, 0.25567803, -0.25625783, -0.30996132
1214, 3366178719, -133.57688903808594, 69.25617980957031, -18.9998779296875, -0.12731476, -0.13850628, -0.14131355
1217, 3366228720, -134.298583984375, 69.10089874267578, -19.97356605529785, -0.19024953, -0.1061016, -0.11143398
1220, 3366278721, -135.15618896484375, 68.99513244628906, -20.966665267944336, 0.16058199, 0.04742744, 0.0029325485
1223, 3366328722, -135.6979522705078, 69.01124572753906, -21.6885929107666, 0.08543794, 0.067540474, -0.0865221
1226, 3366378723, -135.87026977539062, 68.96920013427734, -21.89290428161621, -0.12924781, 0.1436272, -0.22137547
1230, 3366445391, -135.9097442626953, 68.96826171875, -21.59200668334961, 0.037716582, -0.14701632, -0.29810143
1233, 3366495392, -135.92422485351562, 69.08485412597656, -21.277786254882812, 0.05366859, -0.20852105, -0.2171278
1236, 3366545393, -136.2152862548828, 69.16571044921875, -21.751646041870117, 0.033126295, 0.1028068, -0.13417625
1242, 3366645395, -137.7282257080078, 69.04953002929688, -23.23653221130371, -0.051593833, 0.17782468, -0.13559532
1245, 3366695396, -138.61483764648438, 68.90554809570312, -23.664745330810547, -0.027158612, 0.10011928, -0.32357788
1249, 3366762064, -139.97024536132812, 68.41686248779297, -24.818178176879883, -0.33565712, 0.6087825, -0.4223833
1252, 3366812065, -141.49989318847656, 67.23489379882812, -26.41388511657715, -0.9077989, 0.6724582, -0.16178703
1255, 3366862066, -144.079345703125, 65.51276397705078, -28.423389434814453, -0.9160069, 1.2128646, 0.15472412
1258, 3366912067, -146.7583465576172, 63.219112396240234, -30.489593505859375, -0.90868837, 1.485413, 0.32748032
1261, 3366962068, -148.97105407714844, 60.27830505371094, -32.1727294921875, -1.2281394, 1.603078, 0.8563471
1264, 3367012069, -150.7052459716797, 57.231117248535156, -33.33689880371094, -1.577757, 1.4912937, 2.203352
1267, 3367062070, -152.1176300048828, 54.9586067199707, -33.56327819824219, -1.8260773, 0.31066936, 3.336914
1271, 3367128738, -153.74172973632812, 53.89723205566406, -33.11954116821289, 0.9892927, -0.25279048, 1.8235588
1277, 3367228740, -148.11753845214844, 53.6315803527832, -30.36444664001465, 0.1969129, -0.3978564, -1.1947737
1280, 3367278741, -144.4044952392578, 54.002906799316406, -27.837251663208008, 0.8217551, -0.25387964, -2.1348987
1283, 3367328742, -140.15394592285156, 54.426753997802734, -25.225404739379883, 0.87905073, 0.03470642, -2.3864994
1286, 3367378743, -136.57913208007812, 55.06497573852539, -22.987281799316406, 0.6305556, -0.41321623, -2.2144704
1296, 3367545413, -132.5880126953125, 57.3751335144043, -20.241043090820312, 1.1023121, 0.4129695, -1.0093689
1299, 3367595414, -132.9119415283203, 57.96282958984375, -21.489572525024414, 1.3999504, 1.5051912, -0.6878538
1302, 3367645415, -133.8104248046875, 58.48049545288086, -23.82831573486328, 0.9499457, 1.4428327, -0.838171
1305, 3367695416, -137.09556579589844, 58.7894401550293, -26.055763244628906, 0.35336548, 1.0933797, -0.21623135
1308, 3367745417, -141.49856567382812, 59.02516174316406, -27.452054977416992, 0.035113886, -1.0734152, 0.4378338
1311, 3367795418, -146.97402954101562, 59.29962921142578, -28.967178344726562, 1.0346779, -1.1401907, -0.5938444
1315, 3367862086, -151.94456481933594, 59.35434341430664, -31.990602493286133, -1.1988599, -1.8704591, -0.5817833
1318, 3367912087, -153.63999938964844, 59.128662109375, -33.80720901489258, -1.0832767, -1.6668618, -0.34965134
1321, 3367962088, -154.6204071044922, 59.01050567626953, -34.730308532714844, -1.21682, -2.266492, 0.6432314
1324, 3368012089, -155.7958526611328, 59.13267135620117, -35.391937255859375, -0.24151151, -1.3019567, -0.13439846
1327, 3368062090, -155.9812469482422, 59.14855194091797, -36.30217742919922, -0.6380583, -1.6276597, -0.29956913
1330, 3368112091, -155.76361083984375, 59.420310974121094, -36.961212158203125, -1.2542834, -1.437394, -0.024184227
1337, 3368228760, -155.07701110839844, 59.89303970336914, -39.35564041137695, -0.9848581, -0.7318772, -0.6554718
1340, 3368278761, -154.18182373046875, 59.63554382324219, -40.217159271240234, -0.9127954, -0.14837147, 0.2630663
1343, 3368328762, -154.8783721923828, 58.985069274902344, -42.24876403808594, 0.06459033, -0.2590725, -1.1126194
1352, 3368478765, -156.8899383544922, 56.35609436035156, -43.924198150634766, -1.106017, 0.12950525, 1.0236721
1356, 3368545433, -155.93238830566406, 55.12825012207031, -43.21495056152344, -0.70108604, -0.14811444, 1.128519
1359, 3368595434, -155.28353881835938, 54.71040344238281, -42.24452209472656, -0.080737464, 0.09000934, 0.9089823
1362, 3368645435, -153.938232421875, 54.564659118652344, -41.66082000732422, 0.6150535, 0.7371544, -0.40803146
1365, 3368695436, -152.704833984375, 54.78692626953125, -42.04172134399414, 1.4889858, 1.13683, -1.2895889
1368, 3368745437, -151.5506134033203, 55.18081283569336, -42.049930572509766, 0.44472486, 0.91478735, -0.85645103
1371, 3368795438, -151.9561309814453, 55.91486358642578, -41.22420883178711, 1.5581423, 0.7866494, -0.3279972
1375, 3368862106, -151.53271484375, 56.56956100463867, -40.62643051147461, 1.4263605, 1.3217229, -0.91887283
1378, 3368912107, -150.56724548339844, 56.83890914916992, -40.65281677246094, 0.59897715, 1.443608, -1.1267042
1381, 3368962108, -151.0323028564453, 56.977840423583984, -40.620849609375, 0.5985791, 1.3019404, -0.55857944
1387, 3369062110, -155.9744415283203, 57.602272033691406, -39.63053894042969, 1.2710193, -0.8581183, -0.6016855
1390, 3369112111, -157.82455444335938, 58.009925842285156, -39.87102127075195, 0.77342, -0.8845628, -0.033870697
1393, 3369162112, -158.5406951904297, 58.44441223144531, -40.90926742553711, 0.16508164, -1.3537258, 0.029358864
1397, 3369228780, -160.0307159423828, 58.84878921508789, -43.49180221557617, -0.4359704, -0.69852674, -0.031433105
1400, 3369278781, -160.78555297851562, 58.57036209106445, -45.01872634887695, -1.2035263, -0.94121003, -0.39642906
1403, 3369328782, -162.14381408691406, 58.131473541259766, -45.545074462890625, -1.048422, -1.1138299, -0.3583002
1406, 3369378783, -163.46519470214844, 57.61915588378906, -45.693302154541016, -0.64876604, -0.7973419, -0.14813137
1412, 3369478785, -163.96746826171875, 56.77100372314453, -45.357913970947266, -0.8232253, -1.3715585, -0.6097784
1419, 3369595454, -163.68710327148438, 56.39120864868164, -44.9969367980957, -0.05289882, -0.65051675, -0.8342953
1422, 3369645455, -162.9892120361328, 56.025596618652344, -45.129417419433594, -0.76465166, -0.98558843, -0.79957867
1434, 3369845459, -163.57281494140625, 56.24302291870117, -42.832862854003906, 0.4513214, -0.6437486, 0.52577114
1438, 3369912127, -163.6269989013672, 57.22985076904297, -40.68760681152344, 0.98855615, -0.6229753, 0.4597931
1441, 3369962128, -161.8722686767578, 58.044437408447266, -39.036041259765625, 0.8230783, -0.5928256, 0.64298916
1444, 3370012129, -159.0211944580078, 58.75820541381836, -37.248443603515625, 0.23651515, -0.30326706, 0.24060345
1447, 3370062130, -156.2649383544922, 59.593994140625, -35.13318634033203, 0.15579858, 0.08619397, -0.15200424
1450, 3370112131, -153.32440185546875, 60.36182403564453, -32.871368408203125, 0.41256738, 0.28391778, -0.3001585
1456, 3370212133, -147.0581512451172, 61.88008117675781, -28.474063873291016, -0.49380997, 0.35066992, -0.15973282
1460, 3370278801, -143.30157470703125, 62.830501556396484, -25.891414642333984, -0.58206296, 0.77291787, 0.14874077
1463, 3370328802, -140.9237823486328, 63.49581527709961, -24.292436599731445, -0.7607212, 0.65436304, 0.13319874
1466, 3370378803, -138.83804321289062, 64.2340316772461, -22.787023544311523, -0.3636215, 0.7286907, 0.29730988
1475, 3370528806, -134.3969268798828, 65.87068176269531, -20.648786544799805, 0.24605568, 0.75936425, -0.29731178
1478, 3370578807, -134.12693786621094, 66.25011444091797, -20.005529403686523, 0.26624304, 0.44412872, -0.63958645
1482, 3370645475, -134.03843688964844, 66.49092864990234, -20.057601928710938, 0.945472, 0.5428021, -0.5604458
1485, 3370695476, -133.8465576171875, 66.5566177368164, -20.990957260131836, 0.30164492, 0.3089443, -0.82086754
1491, 3370795478, -134.95535278320312, 66.55962371826172, -23.078481674194336, 0.36521292, 0.069457546, -0.24995232
1494, 3370845479, -135.3917999267578, 66.5347671508789, -23.992040634155273, 0.013285386, -0.03460182, -0.15549278
1500, 3370945481, -135.56419372558594, 66.77423095703125, -24.604976654052734, -0.048533715, -0.16063362, -0.08932781
1504, 3371012149, -135.5931396484375, 67.13323211669922, -24.925888061523438, -0.053699993, 0.024877215, -0.29855347
1507, 3371062150, -135.65086364746094, 67.34583282470703, -25.349742889404297, -0.21944167, 0.113250665, -0.17214108
1510, 3371112151, -136.1756591796875, 67.68656921386719, -25.7576961517334, -0.25275123, 0.111374274, -0.10953617
1513, 3371162152, -136.90452575683594, 68.03214263916016, -26.205080032348633, -0.033531748, -0.18029001, 0.13524914
1516, 3371212153, -137.83668518066406, 68.36690521240234, -26.580530166625977, -0.07585918, -0.0042498754, 0.1687727
1519, 3371262154, -138.66883850097656, 68.74039459228516, -26.58576011657715, -0.22757562, -0.3195335, -0.14156723
1523, 3371328822, -137.80039978027344, 68.90583801269531, -25.36037826538086, -0.96736765, 0.028185654, 0.90074635
1526, 3371378823, -136.95663452148438, 68.86466979980469, -25.394285202026367, -0.51050854, 0.04077949, -0.30100918
1529, 3371428824, -136.58062744140625, 68.70744323730469, -25.022871017456055, -0.6987376, -0.1697543, -1.1116142
1532, 3371478825, -136.7510223388672, 68.27828979492188, -24.49863624572754, -0.19361642, 0.035990726, -0.47239208
1535, 3371528826, -137.2452850341797, 68.09051513671875, -24.184844970703125, 0.021309838, -0.17492929, 0.15904713
1538, 3371578827, -137.65834045410156, 67.95831298828125, -24.370845794677734, 0.0631062, -0.29504558, 0.39936638
1545, 3371695496, -138.85873413085938, 67.39193725585938, -26.615020751953125, -0.39163002, 0.29676172, -0.22071934
1548, 3371745497, -139.4315643310547, 66.88114166259766, -27.30420684814453, -0.12091626, 0.23238061, -0.27760315
1551, 3371795498, -139.8068084716797, 66.45182800292969, -27.630199432373047, 0.30471778, 0.33747438, -0.13991642
1554, 3371845499, -139.4380645751953, 66.152099609375, -27.61363983154297, 0.026422696, -0.109278835, -0.045259476
1557, 3371895500, -138.83294677734375, 66.013427734375, -27.153106689453125, 0.19217208, -0.16872904, -0.017796516
1560, 3371945501, -138.0218963623047, 65.92093658447266, -26.619115829467773, 0.21886377, -0.08842418, -0.0955286
1564, 3372012169, -136.96836853027344, 65.78585052490234, -25.856843948364258, -0.11806241, -0.07251175, -0.42271328
1567, 3372062170, -136.45118713378906, 65.72691345214844, -25.19782066345215, 0.17694794, -0.07499508, -0.46674728
1570, 3372112171, -135.90875244140625, 65.76435089111328, -24.640045166015625, 0.068319865, -0.110013746, -0.4873209
1573, 3372162172, -135.5013885498047, 65.82455444335938, -24.236833572387695, 0.04032062, -0.08708646, -0.26037407
1579, 3372262174, -135.3451385498047, 66.22769165039062, -23.139469146728516, 0.22851886, -0.17789039, -0.2885809
1582, 3372312175, -134.86138916015625, 66.62998962402344, -22.572847366333008, 0.24324144, -0.16452834, -0.3419342
1589, 3372428844, -132.88597106933594, 67.9366683959961, -21.110836029052734, -0.010987673, 0.07907866, -0.09295654
1592, 3372478845, -132.85208129882812, 68.30052185058594, -21.04625129699707, -0.20386046, 0.19535725, -0.1148653
1595, 3372528846, -133.28578186035156, 68.3207015991211, -21.125993728637695, -0.25401285, 0.25791606, 0.08166313
1598, 3372578847, -133.91131591796875, 68.34558868408203, -21.002296447753906, 5.752878E-4, 0.016713742, -0.009886742
1601, 3372628848, -134.4442138671875, 68.31905364990234, -21.04279899597168, 0.10133362, -0.19749224, -0.0017385483
1604, 3372678849, -134.74916076660156, 68.29183959960938, -21.114633560180664, 0.18318753, -0.2389624, -0.030032158
1608, 3372745517, -134.64788818359375, 68.17694091796875, -21.451763153076172, 0.0017537944, -0.19363867, -0.20372581
1611, 3372795518, -134.5728759765625, 68.04808807373047, -21.710512161254883, -0.07816841, -0.22196312, -0.21190453
1617, 3372895520, -134.32025146484375, 67.9142074584961, -22.190500259399414, 0.12456969, -0.032316174, -0.45383358
1620, 3372945521, -133.98748779296875, 67.88166046142578, -22.44456672668457, -0.23573267, -0.12826481, -0.3886385
1623, 3372995522, -133.7750244140625, 67.90162658691406, -22.54093360900879, -0.15839738, 0.044773445, -0.13000774
1627, 3373062190, -133.77676391601562, 67.97184753417969, -22.92308235168457, -0.03519636, 0.028746895, -0.08926296
1630, 3373112191, -134.0443572998047, 67.91968536376953, -23.33646011352539, -0.24429798, 0.06361827, -0.20912743
1633, 3373162192, -134.5857391357422, 67.8677749633789, -23.671592712402344, -0.054293644, 0.10979672, -0.111753464
1636, 3373212193, -134.98033142089844, 67.86199951171875, -24.077905654907227, -0.032735262, 0.016249392, -0.09550381
1639, 3373262194, -135.27745056152344, 67.90481567382812, -24.50533676147461, 0.06956964, 0.006054295, -0.12344265
1642, 3373312195, -135.59530639648438, 67.93509674072266, -24.802892684936523, -0.1808098, 0.1100285, -0.24370098
1645, 3373362196, -135.96311950683594, 67.99083709716797, -24.924671173095703, 0.04949907, -0.023183882, -0.10228062
1652, 3373478865, -136.1910400390625, 68.06214904785156, -25.02056884765625, 0.04347908, -0.11245876, -0.18061352
1655, 3373528866, -136.15170288085938, 68.09774017333984, -24.971120834350586, -0.04400523, -0.07535069, -0.19965363
1658, 3373578867, -136.04515075683594, 68.13850402832031, -24.801076889038086, -0.09343289, -0.03446659, -0.16850185
1661, 3373628868, -135.93826293945312, 68.21538543701172, -24.66738510131836, 0.016789287, 0.013825841, -0.18500805
1664, 3373678869, -135.86769104003906, 68.27153778076172, -24.61472511291504, -0.05612645, -0.14016475, -0.1809473
1667, 3373728870, -135.9110870361328, 68.25985717773438, -24.6080322265625, -0.13517113, 0.04118226, -0.1325779
1674, 3373845539, -136.36900329589844, 68.25731658935547, -24.699735641479492, 0.039485127, -0.04856065, -0.16538143
1677, 3373895540, -136.5221710205078, 68.24915313720703, -24.819969177246094, 0.048358258, 0.0066785673, -0.07886982
1680, 3373945541, -136.55323791503906, 68.26998901367188, -24.85152816772461, -0.041277032, 0.04197752, -0.09869003
1683, 3373995542, -136.45928955078125, 68.31401062011719, -24.747848510742188, -0.01579242, 0.060657393, -0.17064285
1686, 3374045543, -136.322509765625, 68.33509063720703, -24.488359451293945, -0.12899704, 0.04114851, -0.20887852
1689, 3374095544, -136.07461547851562, 68.41629028320312, -23.976238250732422, 0.08288531, -0.040316597, -0.24500465
1693, 3374162212, -135.13116455078125, 68.6817626953125, -22.913715362548828, 0.039399635, -0.2009196, -0.13386822
1696, 3374212213, -134.29241943359375, 68.89273071289062, -22.21224594116211, 0.23849994, -0.08514659, -0.25074673
1699, 3374262214, -133.54266357421875, 69.00312042236328, -21.667863845825195, -0.203529, -0.055513687, -0.25301743
1705, 3374362216, -132.24835205078125, 69.35785675048828, -20.03777503967285, 0.08993446, 0.13755748, 0.013153076
1708, 3374412217, -131.03355407714844, 69.51589965820312, -18.950117111206055, -0.47209623, 0.1178928, 0.23689938
1712, 3374478885, -128.38946533203125, 69.55036163330078, -15.831890106201172, -0.26337928, 0.056715965, -0.03330612
1715, 3374528886, -125.69715881347656, 69.56128692626953, -12.414908409118652, 0.081043005, 0.12916367, -0.21683884
1721, 3374628888, -117.90666198730469, 69.42428588867188, -4.873195648193359, 0.28814656, -0.024433194, -0.35501766
1724, 3374678889, -114.88504028320312, 69.34028625488281, -2.3096604347229004, -0.14372453, -0.15142131, -0.16242504
1727, 3374728890, -113.2957992553711, 69.3509521484375, -0.8475036025047302, 0.09581039, -0.082489245, -0.15926456
1730, 3374778891, -113.04901885986328, 69.19927215576172, -0.46502602100372314, 0.021821123, -0.13015607, -0.4147625
1734, 3374845559, -114.530029296875, 68.98072814941406, -1.2503007650375366, 0.052487213, -0.21243408, -0.47318363
1737, 3374895560, -116.34999084472656, 68.8479232788086, -2.7269113063812256, 0.020851525, -0.21852124, -0.29690647
1740, 3374945561, -118.12274169921875, 68.7746810913086, -4.492668628692627, 0.059487637, -0.16102499, -0.20712948
1743, 3374995562, -119.75443267822266, 68.75617218017578, -6.275443077087402, -0.07101128, -0.33159578, -0.17787743
1746, 3375045563, -121.40941619873047, 68.74656677246094, -7.968998432159424, 0.05505683, -0.08218393, -0.036258698
1749, 3375095564, -122.67760467529297, 68.8404541015625, -9.267709732055664, 0.07016541, -0.0982107, 0.03301525
1756, 3375212233, -125.34856414794922, 69.17171478271484, -12.389533042907715, -0.09825663, 0.21277584, -0.21745682
1759, 3375262234, -126.35781860351562, 69.2693862915039, -13.758322715759277, -0.27464065, -0.048645135, -0.16344833
1762, 3375312235, -127.27544403076172, 69.42478942871094, -15.033743858337402, 0.06730523, 0.25259647, 0.0010356903
1765, 3375362236, -127.86785125732422, 69.55575561523438, -16.033348083496094, -0.011847192, -0.10182267, -0.19114971
1768, 3375412237, -128.5065155029297, 69.70608520507812, -16.686201095581055, 0.26473567, -0.2859048, -0.093390465
1771, 3375462238, -129.04234313964844, 69.80017852783203, -17.411413192749023, 0.08961808, -0.06683663, -0.1304636
1775, 3375528906, -129.76028442382812, 69.84744262695312, -19.14470863342285, 0.05354007, 0.12207451, -0.39209366
1778, 3375578907, -130.7651824951172, 69.7130126953125, -20.334264755249023, -0.41095138, 0.14962137, -0.26142406
1781, 3375628908, -132.12738037109375, 69.60018920898438, -21.137378692626953, 0.023734394, 0.05279376, -0.079769135
1784, 3375678909, -133.07470703125, 69.53752136230469, -21.6076717376709, 0.022987973, 0.026376763, -0.116500854
1790, 3375778911, -133.42689514160156, 69.58090209960938, -21.697431564331055, 0.14795496, -0.0270967, -0.13594246
1793, 3375828912, -133.17698669433594, 69.68143463134766, -21.570667266845703, -0.047871668, 0.0039841183, -0.14412594
1797, 3375895580, -132.84634399414062, 69.73356628417969, -21.073883056640625, -0.015651718, -0.038085938, -0.1922493
1800, 3375945581, -132.67613220214844, 69.80290222167969, -20.804096221923828, 0.033346456, -0.08099126, -0.20340633
1803, 3375995582, -132.63980102539062, 69.8177261352539, -20.862754821777344, -0.1500866, -0.004823186, -0.25708103
1806, 3376045583, -132.845703125, 69.82457733154297, -20.97445297241211, -0.033361766, 0.013697321, -0.17419624
1809, 3376095584, -133.17311096191406, 69.78916931152344, -21.251873016357422, -0.15727846, 0.086264156, -0.041449547
1812, 3376145585, -133.4844970703125, 69.78528594970703, -21.44907569885254, -0.028739855, -0.02137812, -0.07826519
1816, 3376212253, -133.83888244628906, 69.74463653564453, -21.79798126220703, -0.03246291, 0.104932405, -0.14186573
1822, 3376312255, -134.11178588867188, 69.74371337890625, -21.957578659057617, -0.08576974, 0.038288217, -0.22182274
1828, 3376412257, -134.47872924804688, 69.86257934570312, -21.760026931762695, -0.091158085, -0.15941323, -0.10990238
1831, 3376462258, -134.63023376464844, 69.94786834716797, -21.80280303955078, 0.010528242, 0.04795381, -0.07602692
1834, 3376512259, -134.70249938964844, 70.0464096069336, -21.722686767578125, 0.07711208, -0.21035184, -0.16960049
1838, 3376578927, -134.8513946533203, 70.08018493652344, -21.817649841308594, 0.07071179, 0.019059844, -0.18187237
1841, 3376628928, -134.86911010742188, 70.04463958740234, -21.97539520263672, -0.18453956, 0.043065805, -0.22707176
1844, 3376678929, -135.01316833496094, 70.02716827392578, -22.101530075073242, 0.04972317, -0.15425648, -0.11435509
1847, 3376728930, -135.1817169189453, 70.00662994384766, -22.330472946166992, 0.041285973, -0.011586241, -0.10665321
1850, 3376778931, -135.22674560546875, 70.03681182861328, -22.457921981811523, -0.050656978, -0.09914699, -0.1655426
1853, 3376828932, -135.16412353515625, 70.06936645507812, -22.57331085205078, -0.05251303, -0.04446835, -0.100868225
1856, 3376878933, -135.0566864013672, 70.09982299804688, -22.5958251953125, 0.041655328, -0.040701263, -0.19341373
1860, 3376945601, -134.9826202392578, 70.0877685546875, -22.608301162719727, -0.04367823, -0.08919709, -0.1626997
1863, 3376995602, -135.01968383789062, 70.04208374023438, -22.642173767089844, 0.057039276, 0.031735934, -0.16949177
1866, 3377045603, -135.1171875, 69.97673034667969, -22.736879348754883, -0.0015655025, -0.044396397, -0.16507244
1869, 3377095604, -135.37278747558594, 69.84217834472656, -22.921871185302734, -0.11445327, 0.07207488, -0.21675205
1872, 3377145605, -135.68231201171875, 69.72142028808594, -23.045516967773438, 0.011061656, 0.04751483, -0.10338688
1875, 3377195606, -135.7848663330078, 69.62968444824219, -23.066219329833984, -0.13211784, -0.0065375306, -0.09161568
1878, 3377245607, -135.8568115234375, 69.58295440673828, -23.025226593017578, 0.04970202, -0.006953041, -0.15787601
1882, 3377312275, -135.88304138183594, 69.55491638183594, -22.888479232788086, -0.099969745, -0.0710208, -0.1938839
1885, 3377362276, -136.00863647460938, 69.52137756347656, -22.78948974609375, 0.10161223, -0.04763687, -0.21038437
1891, 3377462278, -136.16519165039062, 69.43331909179688, -22.661588668823242, 0.09719059, -0.09172726, -0.1496191
1894, 3377512279, -136.257080078125, 69.37438201904297, -22.82110595703125, -0.055109356, -0.046616755, -0.22313118
1897, 3377562280, -136.4352569580078, 69.28514862060547, -22.98851776123047, -0.13344942, -0.019692162, -0.22565174
1901, 3377628948, -136.71951293945312, 69.22484588623047, -23.238004684448242, 0.04679389, -0.10063961, 0.01198864
1904, 3377678949, -136.8810272216797, 69.16988372802734, -23.398788452148438, 0.02749511, -0.024805468, -0.075097084
1907, 3377728950, -136.9344482421875, 69.1355972290039, -23.48801040649414, 0.02140986, 0.015557173, -0.23916817
1910, 3377778951, -136.85548400878906, 69.10078430175781, -23.445880889892578, -0.03274331, -0.060013004, -0.2842312
1913, 3377828952, -136.8072509765625, 69.08262634277344, -23.354684829711914, -0.08891547, -0.0501762, -0.21701336
1916, 3377878953, -136.8529510498047, 69.02223205566406, -23.312091827392578, -0.03928039, -0.07111981, -0.106669426
1923, 3377995622, -136.55245971679688, 68.96984100341797, -22.789655685424805, -0.09913593, -0.0028236392, 0.009187698
1929, 3378095624, -135.53883361816406, 68.50471496582031, -21.482133865356445, -0.18865208, -0.11122005, -0.20878792
1932, 3378145625, -134.99481201171875, 68.26270294189453, -20.523027420043945, 0.10548403, -0.35636905, -0.4125433
1935, 3378195626, -134.25308227539062, 68.34143829345703, -19.6591739654541, 0.42764154, -0.38412714, -0.45368767
1938, 3378245627, -133.3112030029297, 68.69298553466797, -19.163043975830078, 0.18763052, -0.28638738, -0.41339684
1941, 3378295628, -132.93878173828125, 68.93377685546875, -19.741546630859375, 0.22613074, 0.028854629, -0.094685555
1945, 3378362296, -133.10858154296875, 68.95824432373047, -21.528182983398438, -0.31484056, 0.29320815, -0.004395485
1948, 3378412297, -133.4046630859375, 69.00679779052734, -22.297645568847656, -0.06879349, 0.21816899, 0.120654106
1951, 3378462298, -133.31016540527344, 69.01624298095703, -22.510374069213867, 0.11497786, 0.21713032, -0.09465122
1954, 3378512299, -132.94459533691406, 69.00520324707031, -22.22652816772461, -0.24499702, 0.11999494, -0.20858574
1957, 3378562300, -132.65513610839844, 69.0267333984375, -21.69077491760254, 0.082484104, 0.086477384, -0.2971468
1964, 3378678969, -132.4678955078125, 69.02113342285156, -20.836017608642578, 0.05403716, -0.17255133, -0.10224342
1967, 3378728970, -132.71482849121094, 69.00094604492188, -20.744220733642578, 0.17051451, -0.18342428, -0.06247616
1970, 3378778971, -132.8638458251953, 68.93527221679688, -20.995187759399414, 0.1463537, 0.018834095, -0.27451038
1973, 3378828972, -132.8969268798828, 68.90237426757812, -21.30512237548828, -0.14265871, -0.017980276, -0.23431301
1976, 3378878973, -132.9871063232422, 68.89523315429688, -21.576805114746094, -0.06147903, 0.065984376, -0.20343113
1979, 3378928974, -133.04373168945312, 68.95417022705078, -21.700571060180664, 0.01226952, 0.03253097, 0.013554573
1982, 3378978975, -132.95663452148438, 68.98331451416016, -21.63215446472168, 0.054124333, -0.028054452, -0.11588669
1986, 3379045643, -132.44131469726562, 68.97611236572266, -21.053600311279297, 0.058147565, 0.19291314, -0.20036888
1992, 3379145645, -132.23666381835938, 68.98895263671875, -20.233945846557617, 0.08936071, -0.0672508, -0.10638428
1995, 3379195646, -132.4586181640625, 68.95610809326172, -20.196468353271484, 0.29808572, -0.18106337, -0.08841801
2005, 3379362316, -133.60000610351562, 68.54985046386719, -22.018327713012695, -0.056416348, -0.026340108, -0.19289684
2011, 3379462318, -133.9767608642578, 68.47586059570312, -22.146028518676758, 0.04379714, 0.0482151, -0.109267235
2014, 3379512319, -133.89540100097656, 68.46278381347656, -21.78508758544922, 0.08591268, 0.04259017, -0.029725075
2020, 3379612321, -133.59959411621094, 68.33924102783203, -20.90962791442871, 0.013430335, 0.12217956, -0.24189663
2023, 3379662322, -133.62619018554688, 68.28816223144531, -20.68897819519043, -0.21431069, -0.05882642, -0.24462032
2027, 3379728990, -134.06802368164062, 68.19017791748047, -20.90036964416504, -0.0388147, 0.03519815, -0.20746231
2030, 3379778991, -134.46817016601562, 68.1852035522461, -20.910640716552734, -0.14070788, -0.12930985, -0.20622158
2033, 3379828992, -135.0911102294922, 68.14418029785156, -21.02471351623535, 0.15763184, -0.13538069, -0.13867474
2036, 3379878993, -135.5779266357422, 68.11719512939453, -21.185197830200195, -0.013131834, 0.012829867, -0.13863564
2039, 3379928994, -135.7913055419922, 68.07548522949219, -21.239078521728516, -0.06487575, -0.110560685, -0.081124306
2042, 3379978995, -136.05503845214844, 68.07833862304688, -21.380210876464844, -0.012425533, -0.091252066, -0.12406731
2045, 3380028996, -136.28976440429688, 68.08009338378906, -21.53129768371582, 0.04145559, -0.08656473, -0.13812447
2049, 3380095664, -136.4462432861328, 68.08354949951172, -21.72159767150879, -0.0031971294, -0.05377163, -0.24468422
2052, 3380145665, -136.57115173339844, 68.11209106445312, -21.874887466430664, -0.041268986, -0.06151188, -0.15596867
2055, 3380195666, -136.67599487304688, 68.14319610595703, -21.950037002563477, -0.026200077, -0.10608797, -0.090911865
2058, 3380245667, -136.79237365722656, 68.16654968261719, -22.088958740234375, 0.102874294, -0.11051598, -0.16075325
2061, 3380295668, -136.73776245117188, 68.17192840576172, -22.2182559967041, -0.073872484, -0.07495753, -0.14141369
2064, 3380345669, -136.63401794433594, 68.17906188964844, -22.234657287597656, -0.083191186, -0.114200145, -0.08362579
2067, 3380395670, -136.64051818847656, 68.19783782958984, -22.264699935913086, -1.5064773E-4, -0.027570322, -0.25358486
2074, 3380512339, -136.54908752441406, 68.2385025024414, -22.30308723449707, 0.02072725, -0.04325691, -0.10697842
2077, 3380562340, -136.6036376953125, 68.2493667602539, -22.324186325073242, 0.01817205, 0.006160464, -0.21813583
2080, 3380612341, -136.7006072998047, 68.23089599609375, -22.362651824951172, -0.07520227, -0.048842497, -0.21333218
2083, 3380662342, -136.79306030273438, 68.21820831298828, -22.33250617980957, -0.08043259, -0.023737077, -0.087768555
2086, 3380712343, -136.8681640625, 68.20948791503906, -22.40863609313965, 0.04528797, -0.05075398, -0.11535835
2093, 3380829012, -136.96047973632812, 68.21925354003906, -22.578332901000977, 0.076805644, -0.047741473, -0.12154961
2096, 3380879013, -136.93389892578125, 68.2282943725586, -22.626638412475586, -0.009124022, -0.022838106, -0.24978447
2099, 3380929014, -136.95687866210938, 68.20369720458984, -22.653127670288086, -0.090543196, -0.03454214, -0.20814133
2102, 3380979015, -137.0902099609375, 68.16902160644531, -22.701663970947266, -0.018831749, -0.08440341, -0.17210674
2105, 3381029016, -137.22036743164062, 68.12376403808594, -22.766019821166992, -0.03134132, -0.11085639, -0.027233124
2112, 3381145685, -137.25076293945312, 67.97676849365234, -22.98219871520996, -0.109257974, -0.019460328, -0.12508392
2115, 3381195686, -137.33168029785156, 67.89938354492188, -23.037887573242188, 0.01684103, -0.01815171, -0.18768215
2118, 3381245687, -137.3792266845703, 67.85176849365234, -23.053272247314453, -0.03880956, 0.0058958246, -0.21796894
2121, 3381295688, -137.4116668701172, 67.8073501586914, -23.018766403198242, -0.121774666, 0.026692588, -0.19094563
2127, 3381395690, -137.8406982421875, 67.63701629638672, -22.897613525390625, -0.107094, -0.17368454, -0.17120266
2130, 3381445691, -138.0426788330078, 67.61799621582031, -22.491899490356445, 0.22626182, -0.08559496, -0.061302185
2134, 3381512359, -137.68670654296875, 67.67961883544922, -21.969791412353516, 0.09222033, -0.25718787, -0.2343874
2137, 3381562360, -137.3516387939453, 67.78252410888672, -21.678979873657227, 0.050503645, -0.23939534, -0.13602924
2140, 3381612361, -137.2104034423828, 67.85811614990234, -21.721460342407227, 0.20074627, -0.12018336, -0.3031168
2143, 3381662362, -137.1250457763672, 67.8251953125, -21.97636604309082, -0.14708035, -0.03791182, -0.19902802
2149, 3381762364, -137.72560119628906, 67.69879913330078, -22.76533317565918, -0.17610452, 0.08982114, -0.055577278
2153, 3381829032, -137.8649444580078, 67.64303588867188, -22.95558738708496, -0.05940952, 0.16593826, -0.14609146
2156, 3381879033, -137.70413208007812, 67.62400817871094, -22.86539649963379, -0.2037144, 0.036699038, -0.19528389
2159, 3381929034, -137.69798278808594, 67.61495208740234, -22.67716407775879, -0.06705925, 0.027673138, -0.12766552
2162, 3381979035, -137.8108673095703, 67.57848358154297, -22.52316665649414, 0.07726653, -0.043756016, -0.023669243
2168, 3382079037, -137.8704376220703, 67.4549789428711, -22.255611419677734, -0.0075140544, -0.1181014, -0.18721199
2175, 3382195706, -137.89430236816406, 67.41361999511719, -22.115890502929688, -0.047582332, -0.102978006, -0.16493797
2178, 3382245707, -137.98544311523438, 67.37748718261719, -22.142166137695312, 0.044589605, -0.19828951, -0.057003975
2181, 3382295708, -138.06788635253906, 67.31153869628906, -22.23805809020996, 0.14789036, -0.12239927, -0.13441372
2184, 3382345709, -137.98788452148438, 67.2647705078125, -22.388017654418945, 0.024272054, -0.112277485, -0.20071602
2193, 3382495712, -137.90798950195312, 67.24246215820312, -22.70923614501953, 0.08145896, -0.05049314, -0.32224178
2197, 3382562380, -138.09857177734375, 67.18472290039062, -22.929744720458984, -0.06934266, -0.004574416, -0.14733982
2203, 3382662382, -138.4187469482422, 67.12651824951172, -23.12493324279785, 0.020908073, -0.008215442, -0.08727932
2206, 3382712383, -138.39869689941406, 67.10970306396484, -23.015064239501953, 7.6430256E-4, -0.0030151897, -0.15835285
2209, 3382762384, -138.3685760498047, 67.11036682128906, -22.862672805786133, -0.037970047, -0.033535883, -0.15952969
2212, 3382812385, -138.337890625, 67.12590026855469, -22.697019577026367, 0.004718694, -0.12811002, -0.14485264
2216, 3382879053, -138.339111328125, 67.10295104980469, -22.49411964416504, 0.07403699, -0.06885272, -0.2356987
2219, 3382929054, -138.35995483398438, 67.02960205078125, -22.42437744140625, -0.020325933, -0.10588211, -0.1527996
2222, 3382979055, -138.45474243164062, 66.92723083496094, -22.512361526489258, 0.0059284577, -0.15441772, -0.10326004
2225, 3383029056, -139.03897094726562, 66.7640151977539, -23.140762329101562, 0.034585055, -0.02721762, 0.062726974
2228, 3383079057, -139.22962951660156, 66.74266815185547, -23.36818504333496, -0.014325616, 0.09023084, -0.3470497
2231, 3383129058, -139.3861541748047, 66.5742416381836, -23.768310546875, 0.11048927, -0.057546318, -0.22715855
2238, 3383245727, -139.72596740722656, 66.361328125, -24.28316879272461, -0.060598496, 0.07964281, -0.0845356
2244, 3383345729, -139.63356018066406, 66.4756851196289, -23.896127700805664, 0.06546661, -0.08903683, -0.17984581
2250, 3383445731, -139.5425567626953, 66.54808807373047, -23.51858139038086, -0.069689885, -0.16917025, -0.24356747
2253, 3383495732, -139.70291137695312, 66.54347229003906, -23.477628707885742, 0.10726946, -0.1658531, -0.18054485
2256, 3383545733, -139.9292755126953, 66.50880432128906, -23.64893341064453, -0.009860386, -0.10043689, -0.15297508
2260, 3383612401, -140.23504638671875, 66.47657775878906, -24.00959587097168, 0.045127153, -0.011462862, -0.16288567
2263, 3383662402, -140.3168487548828, 66.427978515625, -24.280376434326172, -0.07803854, 0.06532524, -0.033893585
2269, 3383762404, -140.54078674316406, 66.3003158569336, -24.13182830810547, -0.07439316, -0.0064745583, -0.007844925
2272, 3383812405, -140.38304138183594, 66.41658020019531, -23.559036254882812, 0.018127348, -0.117849216, -0.109041214
2275, 3383862406, -139.84808349609375, 66.70095825195312, -22.781225204467773, 0.013879595, -0.17262532, -0.2138319
2279, 3383929074, -139.08370971679688, 67.14897918701172, -21.63748550415039, 0.23936573, -0.275355, -0.24274063
2285, 3384029076, -138.0552978515625, 67.48883056640625, -20.8438720703125, 0.008714099, -0.09030281, -0.2723837
2288, 3384079077, -137.5053253173828, 67.63324737548828, -20.687108993530273, -0.1859534, 0.0034521576, -0.2666092
2291, 3384129078, -137.02749633789062, 67.8101577758789, -20.415042877197266, 0.10159272, -0.045397673, -0.09908962
2294, 3384179079, -136.46824645996094, 67.9688491821289, -20.06713104248047, 0.040815923, 0.0232639, -0.055016518
2297, 3384229080, -135.8598175048828, 68.11111450195312, -19.58024024963379, -0.051091485, -0.12647861, -0.03625679
2301, 3384295748, -134.97718811035156, 68.29544830322266, -18.85128402709961, 0.03409556, -0.009595634, -0.2442007
2307, 3384395750, -133.62181091308594, 68.50377655029297, -17.830183029174805, -0.2084123, -0.044991817, -0.13040829
2310, 3384445751, -133.45106506347656, 68.58551788330078, -17.519086837768555, -0.14792646, -0.035946023, -0.1307764
2316, 3384545753, -133.7406768798828, 68.53141784667969, -17.71682357788086, -0.16979364, 0.18142815, -0.19300652
2319, 3384595754, -134.13156127929688, 68.51544952392578, -17.74013900756836, 0.025300102, 0.09790963, -0.09005833
2323, 3384662422, -134.39022827148438, 68.53418731689453, -17.416399002075195, 0.1819411, -0.02218299, -0.2339201
2326, 3384712423, -134.22943115234375, 68.59966278076172, -16.9596004486084, 0.08033056, -0.2147622, -0.22369862
2329, 3384762424, -134.0870361328125, 68.69023895263672, -16.723876953125, -0.018369524, -0.14460707, -0.12738895
2332, 3384812425, -134.0835723876953, 68.81688690185547, -16.691852569580078, -0.017415682, -0.14250895, -0.3621626
2335, 3384862426, -134.1814422607422, 68.95323944091797, -16.799001693725586, -0.03523648, -0.18729179, -0.32304478
2338, 3384912427, -134.41482543945312, 69.044677734375, -17.16661262512207, 0.13109392, -0.13402686, -0.14807415
2345, 3385029096, -135.4747314453125, 69.04423522949219, -18.747114181518555, -0.04155385, -0.022239093, -0.16534233
2348, 3385079097, -135.88966369628906, 68.97371673583984, -19.09708595275879, 0.09436773, 0.06094237, -0.064977646
2351, 3385129098, -136.0690155029297, 68.84458923339844, -19.482954025268555, -0.14757253, 0.038661037, -0.13726234
2354, 3385179099, -136.26797485351562, 68.76620483398438, -19.68301010131836, -0.15576808, -0.006161358, -0.111436844
2357, 3385229100, -136.49227905273438, 68.72148132324219, -19.74752426147461, 0.009771093, -0.012714758, 0.060985565
2360, 3385279101, -136.64706420898438, 68.70849609375, -19.64339828491211, 0.16089994, -0.09796662, -0.2664976
2364, 3385345769, -136.64488220214844, 68.64505767822266, -19.544849395751953, 0.002849008, -0.055390533, -0.32251453
2367, 3385395770, -136.5904541015625, 68.56482696533203, -19.70855140686035, -0.0464356, -0.007127381, -0.15086842
2370, 3385445771, -136.83900451660156, 68.4136734008789, -20.050188064575195, -0.18611209, -0.067227766, -0.15452957
2373, 3385495772, -137.44931030273438, 68.29532623291016, -20.352872848510742, 0.06744313, -0.09105426, -0.1039238
2379, 3385595774, -138.01512145996094, 68.06063842773438, -20.898059844970703, 0.05123185, -0.061404373, -0.13109207
2386, 3385712443, -138.18540954589844, 67.80776977539062, -21.092493057250977, 0.023572793, -0.018859353, -0.27044106
2389, 3385762444, -138.27462768554688, 67.74102783203125, -21.13643455505371, -0.07909799, -0.045467675, -0.25174904
2392, 3385812445, -138.43003845214844, 67.67906951904297, -21.14309310913086, -0.03099704, -0.0912562, -0.09718323
2395, 3385862446, -138.69692993164062, 67.64578247070312, -21.165721893310547, 0.04564682, -0.04285481, -0.15262318
2398, 3385912447, -138.9161376953125, 67.61913299560547, -21.17045783996582, 0.0045560882, -0.07823467, -0.28269196
2401, 3385962448, -139.0927734375, 67.5498046875, -21.238126754760742, 0.055479046, -0.1478118, -0.120150566
2405, 3386029116, -139.4818115234375, 67.44679260253906, -21.449628829956055, 0.09345535, -0.14361311, -0.033276558
2408, 3386079117, -139.67213439941406, 67.43741607666016, -21.596723556518555, 0.13672042, -0.10056608, -0.12620449
2411, 3386129118, -139.61224365234375, 67.41368103027344, -21.66661834716797, 0.124092154, -0.071530625, -0.12739944
2414, 3386179119, -139.4889373779297, 67.31857299804688, -21.7664737701416, 0.082189165, -0.037415165, -0.11470032
2417, 3386229120, -139.41043090820312, 67.22178649902344, -21.809825897216797, 0.021323582, -0.11528664, -0.10756016
2420, 3386279121, -139.36361694335938, 67.17153930664062, -21.87963104248047, 0.1049124, -0.15168908, -0.14229965
2423, 3386329122, -139.15518188476562, 67.04582214355469, -21.92966079711914, -0.031599816, -0.04578462, -0.08624554
2427, 3386395790, -138.77593994140625, 67.0213394165039, -21.790021896362305, -8.7550026E-4, -0.14430489, -0.42210674
2433, 3386495792, -138.01712036132812, 66.78691864013672, -21.35926628112793, -0.14196973, 0.1303199, -0.2052927
2436, 3386545793, -137.4098358154297, 66.9039306640625, -20.61410140991211, 0.048076294, -0.09952607, -0.08971596
2439, 3386595794, -136.5704345703125, 67.06148529052734, -19.836761474609375, 0.028682413, -0.04024574, 0.012807846
2442, 3386645795, -135.58401489257812, 67.27515411376953, -18.908283233642578, 0.040203277, -0.18321782, -0.15054703
2452, 3386812465, -133.78379821777344, 67.60626983642578, -16.573362350463867, 0.016775541, -0.22562605, -0.11135864
2455, 3386862466, -133.7486572265625, 67.64757537841797, -16.06934928894043, 0.50192785, -0.2363864, -0.08432102
2458, 3386912467, -133.27272033691406, 67.6379165649414, -16.012495040893555, 0.09505682, -0.1760958, -0.18182278
2461, 3386962468, -132.920654296875, 67.65571594238281, -16.09413719177246, -0.047731638, -0.11753429, -0.2835951
2464, 3387012469, -132.94085693359375, 67.60572052001953, -16.36197853088379, 0.03965969, 0.054576054, -0.34949017
2471, 3387129138, -133.7039337158203, 67.29608917236328, -17.398717880249023, 0.049151283, -0.019541962, -0.20877075
2474, 3387179139, -134.12181091308594, 67.23281860351562, -17.73015785217285, -0.03124264, 0.07967879, -0.16296387
2477, 3387229140, -134.48516845703125, 67.21504211425781, -17.963218688964844, -0.169974, 0.03676274, -0.10144329
2480, 3387279141, -134.72653198242188, 67.3087387084961, -17.927486419677734, 0.11241562, -0.013826288, -0.11988354
2483, 3387329142, -134.6650390625, 67.41891479492188, -17.75294303894043, 0.006345868, -0.10479472, -0.09224224
2490, 3387445811, -134.34597778320312, 67.64875030517578, -17.56587028503418, -0.15467142, -0.016546441, -0.12504578
2493, 3387495812, -134.39405822753906, 67.66101837158203, -17.715923309326172, 0.17961954, 0.0022785778, -0.14792538
2496, 3387545813, -134.3475341796875, 67.64055633544922, -17.971805572509766, 0.15298803, 0.14825435, -0.2901106
2499, 3387595814, -134.35208129882812, 66.90921020507812, -18.77405548095703, 0.7714908, -0.2766422, -0.5703049
2502, 3387645815, -132.2856903076172, 65.86103057861328, -18.943607330322266, 0.96635413, 0.61545765, -0.009660721
2505, 3387695816, -129.11009216308594, 64.84708404541016, -18.220178604125977, -0.42594293, 1.2113681, 0.43907356
2508, 3387745817, -124.33694458007812, 64.22765350341797, -15.634281158447266, -0.72258383, 2.0141826, 0.47043228
2512, 3387812485, -114.0869369506836, 64.1937255859375, -7.562957763671875, -0.63441896, 2.1912897, 0.6361809
2515, 3387862486, -102.94120025634766, 63.90237808227539, 2.643615484237671, -0.26104924, 1.3483841, 0.6205044
2518, 3387912487, -90.65249633789062, 62.785587310791016, 13.941012382507324, -0.81830764, 0.061491765, 0.77988815
2524, 3388012489, -73.95802307128906, 59.01481628417969, 31.040037155151367, 0.21737786, -1.6281605, -0.6630554
2527, 3388062490, -69.72743225097656, 57.520713806152344, 36.02582931518555, -0.12609036, -1.3937331, -0.87187576
2530, 3388112491, -67.22884368896484, 56.43571853637695, 39.58891677856445, 0.55234486, -0.9965772, -0.9580631
2534, 3388179159, -64.43405151367188, 55.14101791381836, 42.856143951416016, 0.08872414, 0.7968597, 0.021821022
2537, 3388229160, -61.73086166381836, 54.1170768737793, 45.86619186401367, -0.40144184, -0.13814662, -0.26499748
2540, 3388279161, -59.84260177612305, 53.069339752197266, 48.47096633911133, -0.058902033, -0.7897895, -0.17003155
2543, 3388329162, -57.97784423828125, 52.308956146240234, 50.7786865234375, 1.2206985, -0.7944464, -0.3261242
2546, 3388379163, -56.19488525390625, 52.15095901489258, 51.69455337524414, 0.8418222, -1.5352589, -1.1462345
2549, 3388429164, -55.67892074584961, 52.252349853515625, 51.6666259765625, -0.53157175, -0.89770895, -0.78390026
2553, 3388495832, -58.355655670166016, 52.85891342163086, 50.969242095947266, 0.23532349, 0.33716685, -0.05375862
2559, 3388595834, -59.000205993652344, 54.17645263671875, 49.39823913574219, 0.19396566, -0.35918018, 0.020823479
2562, 3388645835, -58.863704681396484, 54.79479217529297, 48.79961395263672, -0.6819806, -0.5610908, -0.02106762
2565, 3388695836, -59.6115837097168, 55.20874786376953, 48.60887908935547, 0.35135734, 0.11674059, 0.022138596
2568, 3388745837, -59.69144058227539, 55.51264190673828, 48.478492736816406, 0.6581511, 0.46514118, 0.3301115
2571, 3388795838, -58.0387077331543, 55.87309646606445, 48.803531646728516, -0.63142675, 0.34015134, 0.18164349
2575, 3388862506, -56.234092712402344, 56.019535064697266, 50.43002700805664, -1.1060579, 0.33444333, -0.17146301
2578, 3388912507, -55.3156852722168, 56.09196090698242, 52.87229537963867, -1.006598, 0.04165678, -0.08221054
2581, 3388962508, -54.167686462402344, 56.04080581665039, 56.017147064208984, 0.03988667, -0.002439197, -0.024407387
2584, 3389012509, -53.494876861572266, 55.969966888427734, 58.36503219604492, 1.0834984, 0.44763252, -0.13154697
2587, 3389062510, -52.50941467285156, 55.85274887084961, 59.74816131591797, 0.97102356, 0.05442138, -0.43836308
2590, 3389112511, -52.24641418457031, 56.25159454345703, 59.91413879394531, 0.02029967, -0.05862119, -0.38158798
2597, 3389229180, -54.39506149291992, 56.85303497314453, 57.97538375854492, -0.12625219, 0.1346261, -0.1269846
2600, 3389279181, -55.217689514160156, 56.79113006591797, 57.236289978027344, -0.6045814, 0.17660786, 0.16468048
2603, 3389329182, -56.01837921142578, 56.77742004394531, 57.21315383911133, 0.1500847, 0.04156715, -0.081007004
2606, 3389379183, -55.85837936401367, 56.90702819824219, 57.370487213134766, 0.020514578, 0.0046188952, -0.037611008
2609, 3389429184, -55.74611282348633, 56.995479583740234, 57.41582107543945, 0.061753836, 0.11358437, -0.0015478134
2612, 3389479185, -56.205047607421875, 57.21576690673828, 57.02631378173828, 0.29413646, -0.08538418, -0.28739834
2616, 3389545853, -56.99252700805664, 57.27700424194336, 56.08444595336914, -0.06505804, -0.20631489, -0.1304264
2619, 3389595854, -57.73442840576172, 57.43759536743164, 55.2130126953125, 0.13720052, 0.0017114388, 0.030049324
2634, 3389845859, -60.25081253051758, 57.955589294433594, 53.981327056884766, -0.13843621, 0.40601957, 0.17981339
2638, 3389912527, -60.641021728515625, 57.81571960449219, 54.167388916015625, -0.37191486, 0.18460816, -0.34512138
2641, 3389962528, -60.96245193481445, 57.80685043334961, 54.666439056396484, -0.14439312, 0.038193446, -0.1779728
2644, 3390012529, -60.679054260253906, 58.10404586791992, 55.37089920043945, -0.061961144, 0.04004212, -0.533617
2647, 3390062530, -59.55345153808594, 58.83955383300781, 55.91105270385742, -0.33728832, 0.11363801, -0.085131645
2650, 3390112531, -58.214500427246094, 59.8426628112793, 56.85354995727539, -1.0125281, -0.2450006, -0.13781357
2653, 3390162532, -56.48124313354492, 60.92118835449219, 59.105064392089844, -0.5750606, 0.0875793, 0.16324043
2657, 3390229200, -52.858482360839844, 62.38216018676758, 63.78103256225586, -0.5870629, -0.17187364, -0.034140587
2660, 3390279201, -49.878883361816406, 63.418636322021484, 68.30552673339844, -0.38448447, 0.027573586, 0.33100224
2663, 3390329202, -48.091407775878906, 64.08779907226562, 72.83191680908203, 0.6943225, -0.14849508, 0.0034942627
2669, 3390429204, -49.368473052978516, 64.74353790283203, 80.12460327148438, -0.32165304, -0.053458713, -0.4745884
2672, 3390479205, -52.33208465576172, 64.25245666503906, 84.04227447509766, 0.43825752, -0.35563514, -0.8750353
2675, 3390529206, -56.941280364990234, 66.1244125366211, 85.21249389648438, 3.5775437, 6.117297, 2.3132668
2679, 3390595874, -54.168094635009766, 66.51099395751953, 82.04139709472656, 0.16282363, -1.2484521, -0.6265993
2682, 3390645875, -54.26673126220703, 66.51927185058594, 78.32980346679688, -2.3927195, -1.7631462, -0.5453863
2685, 3390695876, -57.25334930419922, 66.43492889404297, 77.5841064453125, -0.85786283, -0.29705924, -0.25198936
2688, 3390745877, -60.40450668334961, 66.60238647460938, 77.41254425048828, 0.5469153, 1.0369765, 0.41695595
2691, 3390795878, -60.109317779541016, 66.67756652832031, 76.85073852539062, 0.55014247, 0.41483736, 0.10123348
2694, 3390845879, -59.11859893798828, 66.56551361083984, 76.05664825439453, -0.38484228, -0.31052804, -0.16440678
2697, 3390895880, -59.96062469482422, 66.29851531982422, 75.14923858642578, 0.539373, -0.2657891, -0.25925732
2704, 3391012549, -67.11376190185547, 66.27794647216797, 67.23302459716797, 1.2400022, -0.42242765, -0.33362198
2707, 3391062550, -72.46343994140625, 66.68492889404297, 59.46581268310547, -0.12049002, -0.5299074, -0.37691212
2710, 3391112551, -80.69713592529297, 67.0901107788086, 49.09418487548828, 0.22860284, -0.46756965, -0.32153797
2713, 3391162552, -89.91510009765625, 67.25376892089844, 37.61262130737305, -0.20005007, -0.4769657, -0.3003006
2719, 3391262554, -105.8470458984375, 66.04459381103516, 14.473238945007324, -0.43490615, 0.103984706, 0.64879894
2723, 3391329222, -110.52405548095703, 64.74064636230469, 5.597968578338623, -0.8278987, 0.5460194, 0.2862091
2726, 3391379223, -112.8258056640625, 63.9962158203125, 1.0916444063186646, -0.52381045, -0.16808867, -0.44716167
2729, 3391429224, -115.54210662841797, 63.267059326171875, -2.7312543392181396, -0.26561207, 0.19136062, 0.010873795
2732, 3391479225, -118.0364761352539, 62.829837799072266, -6.049400329589844, -0.48320764, 0.063886486, 0.078884125
2735, 3391529226, -120.34049224853516, 62.49235153198242, -9.059174537658691, -0.2485626, 0.021610796, -0.041330338
2742, 3391645895, -124.78716278076172, 62.988338470458984, -14.206113815307617, 0.30366382, 0.36673602, -0.25038433
2748, 3391745897, -125.38713836669922, 63.870609283447266, -16.103221893310547, -0.34060758, 0.15779568, -0.12077999
2751, 3391795898, -126.10242462158203, 64.21038055419922, -16.666170120239258, 0.39855334, 0.26771712, -0.13537121
2754, 3391845899, -126.39103698730469, 64.50543212890625, -17.36402130126953, 0.116531946, 0.031550642, -0.26818466
2760, 3391945901, -126.28688049316406, 64.88714599609375, -18.31593132019043, -0.06508664, -0.02601892, -0.15991306
2764, 3392012569, -126.14557647705078, 64.86070251464844, -19.06224250793457, 0.024811167, 0.41167957, -0.19937706
2767, 3392062570, -125.54679870605469, 64.86190795898438, -19.082958221435547, 0.19761619, 0.27596542, -0.18063545
2770, 3392112571, -124.6390151977539, 64.58149719238281, -19.446388244628906, 0.4475152, -0.4024592, -0.3356762
2773, 3392162572, -123.05711364746094, 64.09868621826172, -19.593210220336914, 0.02893107, 0.38955605, 0.22458744
2776, 3392212573, -120.45629119873047, 63.922874450683594, -18.573575973510742, -0.070422225, 1.0553647, 0.3925352
2779, 3392262574, -116.21846771240234, 64.03443908691406, -15.830794334411621, -0.3000219, 0.89716583, 0.12711811
2783, 3392329242, -108.7780990600586, 64.09803771972656, -9.361764907836914, -0.5294867, 0.7999424, 0.13841438
2786, 3392379243, -102.2839584350586, 64.04985046386719, -2.393054246902466, -0.9749937, 0.86245847, 0.15217495
2789, 3392429244, -94.91791534423828, 63.97801208496094, 6.201826572418213, -1.0438869, 0.6222878, 0.29154015
2792, 3392479245, -86.19518280029297, 64.02530670166016, 16.79532241821289, -1.3141935, 0.27072492, 0.24097633
2795, 3392529246, -77.0993423461914, 63.84578323364258, 28.440982818603516, -1.3900956, -0.16693248, 0.063100815
2798, 3392579247, -68.57393646240234, 63.237342834472656, 40.364261627197266, -1.1911567, -0.7211337, 0.004181862
2801, 3392629248, -61.3935661315918, 62.309425354003906, 52.09067916870117, -0.78564906, -0.921967, -0.054382324
2805, 3392695916, -54.46875762939453, 60.84772491455078, 66.4222412109375, 0.13267936, -1.1516646, -0.5468254
2811, 3392795918, -50.0603141784668, 58.967071533203125, 82.23353576660156, 1.1748035, -0.6764108, -0.8797531
2814, 3392845919, -50.65711212158203, 58.22340774536133, 86.99195098876953, 1.3275218, 0.12859863, -0.61466503
2817, 3392895920, -52.072296142578125, 58.250099182128906, 90.13606262207031, 1.6316798, -2.6836529, -1.7492418
2820, 3392945921, -53.23849868774414, 59.159603118896484, 89.17221069335938, 2.56797, 3.386261, 0.46057987
2823, 3392995922, -49.623619079589844, 59.79558181762695, 88.11865234375, -1.2088082, -1.4254678, -0.42264175
2830, 3393112591, -53.2055778503418, 60.75212860107422, 87.70829772949219, 0.7347738, 0.2973927, 0.029583931
2833, 3393162592, -53.974151611328125, 61.31025695800781, 87.4847640991211, 1.2108965, 1.0183697, 0.16721535
2836, 3393212593, -53.10633850097656, 61.802040100097656, 86.16661834716797, -0.017245365, -0.12026048, 0.169734
2842, 3393312595, -55.2574348449707, 62.15839767456055, 83.89013671875, 0.11811299, -0.10144448, -0.1865673
2846, 3393379263, -58.03447341918945, 62.67168426513672, 81.60670471191406, 0.7682669, 0.14341843, -0.336195
2852, 3393479265, -62.1331672668457, 64.37443542480469, 74.13870239257812, 0.20703486, -0.53829944, -0.27488232
2855, 3393529266, -65.275390625, 65.1725082397461, 69.81887817382812, -0.38084212, -0.2272959, -0.2690525
2858, 3393579267, -69.70015716552734, 65.93029022216797, 65.23849487304688, -0.15304865, 0.1032983, 0.19906998
2861, 3393629268, -72.89525604248047, 66.41686248779297, 61.68470764160156, -1.1237992, 0.16856565, 0.12724972
2864, 3393679269, -74.0658187866211, 66.87384796142578, 60.40898895263672, -0.72647697, 0.07987727, 0.07108307
2871, 3393795938, -72.28998565673828, 67.56307220458984, 61.85765838623047, 0.46314868, 0.3240084, -0.015417099
2874, 3393845939, -71.34415435791016, 67.63044738769531, 61.60378646850586, 0.16859336, -0.28156328, -0.35775757
2877, 3393895940, -71.89216613769531, 67.57699584960938, 60.58441925048828, 0.4213948, -0.12358277, -0.26442623
2880, 3393945941, -72.98521423339844, 67.4932861328125, 58.835304260253906, 0.8917904, -0.3120907, -0.38193703
2883, 3393995942, -75.3370590209961, 67.4901123046875, 55.175384521484375, 0.3286378, -0.18552938, 0.092012405
2890, 3394112611, -83.25083923339844, 67.13692474365234, 43.419464111328125, -0.37395445, -0.4537311, 0.021436691
2893, 3394162612, -88.36026000976562, 67.06905364990234, 37.03744125366211, -0.0012669273, -0.39022568, -0.554183
2896, 3394212613, -93.84556579589844, 67.00949096679688, 29.976354598999023, -0.2571265, -0.11794533, 0.1225996
2899, 3394262614, -99.04206085205078, 66.85059356689453, 23.231441497802734, -0.6078262, 0.39985195, -0.10625553
2902, 3394312615, -103.67561340332031, 66.65703582763672, 17.33672523498535, -0.38827038, 0.3750096, 0.2544365
2905, 3394362616, -106.50057220458984, 66.458251953125, 13.631155967712402, -0.50746906, 0.58365047, 0.011170387
2908, 3394412617, -108.59272766113281, 66.3320083618164, 11.101517677307129, -0.09116043, 0.5815098, 0.090584755
2912, 3394479285, -109.02787780761719, 66.29277801513672, 10.074819564819336, -0.2890634, 0.23100244, -0.12107754
2915, 3394529286, -109.03795623779297, 66.3401107788086, 9.72891616821289, 0.065743655, 0.25575203, -0.3369789
2918, 3394579287, -108.77344512939453, 66.44593048095703, 9.658598899841309, -0.18247241, -0.024385365, -0.18527603
2924, 3394679289, -108.24478912353516, 66.84394836425781, 10.090338706970215, -0.09620534, -0.12998508, -0.11910343
2927, 3394729290, -108.41144561767578, 67.112060546875, 9.980864524841309, 0.30559283, -0.11730385, -0.21704578
2931, 3394795958, -108.9894027709961, 67.39018249511719, 9.225125312805176, 0.27230003, -0.26345807, -0.2613659
2934, 3394845959, -109.49727630615234, 67.51055908203125, 8.201284408569336, 0.23965774, -0.07931737, -0.051641464
2937, 3394895960, -110.07501220703125, 67.61383819580078, 7.0177202224731445, -0.2325012, 0.053105783, -0.122234344
2940, 3394945961, -110.96357727050781, 67.67151641845703, 5.683211326599121, 0.20147042, -0.18474896, -0.20423985
2943, 3394995962, -111.98332214355469, 67.6422119140625, 4.203680038452148, 0.15045238, -0.07659633, -0.069301605
2946, 3395045963, -113.06793975830078, 67.59881591796875, 2.5467209815979004, 0.22674718, -0.032531865, -0.05753994
2949, 3395095964, -113.90446472167969, 67.505126953125, 0.9412186741828918, 0.093285255, 0.009650619, -0.09764862
2953, 3395162632, -115.2437744140625, 67.25983428955078, -1.409754991531372, -0.008261262, 0.054476142, -0.19306278
2956, 3395212633, -116.33210754394531, 67.01943969726562, -3.097893476486206, -0.026046077, 0.0693811, -0.1760292
2959, 3395262634, -117.25016021728516, 66.78707122802734, -4.595157146453857, 0.013710955, 0.21779527, -0.17654228
2962, 3395312635, -117.77152252197266, 66.58611297607422, -5.666005611419678, -0.18570353, 0.14393772, -0.1774559
2965, 3395362636, -118.11507415771484, 66.49395751953125, -6.293701171875, -0.14288144, 0.2693072, -0.1600542
2968, 3395412637, -118.36470794677734, 66.49860382080078, -6.699042797088623, -0.1980859, 0.104651004, -0.12005997
2971, 3395462638, -118.44654846191406, 66.54156494140625, -6.826801300048828, 0.03608941, 0.22555363, -0.05459404
2975, 3395529306, -118.37088012695312, 66.63521575927734, -6.570474147796631, -0.10421202, 0.060324136, -0.12429142
2978, 3395579307, -118.4309310913086, 66.68016052246094, -6.269588947296143, 0.16808264, 0.12692384, -0.23357868
2981, 3395629308, -118.42042541503906, 66.73340606689453, -6.034552097320557, -0.016906297, -0.035477094, -0.29028702
2987, 3395729310, -118.4939193725586, 66.78164672851562, -5.755546569824219, 0.13219282, -0.065570876, -0.15484333
2990, 3395779311, -118.65254211425781, 66.7994613647461, -5.951394557952881, 0.029819757, -0.075814255, -0.22427082
2994, 3395845979, -119.08678436279297, 66.79594421386719, -6.433299541473389, 0.11803306, -0.05752173, -0.15508461
2997, 3395895980, -119.60060119628906, 66.75940704345703, -7.008882999420166, 0.032785773, -0.027510198, -0.2157507
3000, 3395945981, -120.07662200927734, 66.75862884521484, -7.510300159454346, -0.033936754, -0.06536167, -0.11161232
3003, 3395995982, -120.51856994628906, 66.76496887207031, -8.050426483154297, 0.15830718, 0.019732172, -0.10797024
3006, 3396045983, -120.80908203125, 66.76131439208984, -8.550274848937988, -0.04863083, -0.044427894, -0.16244888
3009, 3396095984, -121.10455322265625, 66.74441528320312, -8.901796340942383, 0.107260965, -0.006024345, -0.20445824
3012, 3396145985, -121.41658782958984, 66.72747802734375, -9.244861602783203, -0.010632511, -0.02090405, -0.12709045
3016, 3396212653, -121.72771453857422, 66.71022033691406, -9.663415908813477, -0.03725659, 0.106132, -0.10378075
3022, 3396312655, -121.80783081054688, 66.7931137084961, -9.827478408813477, 0.16288507, -0.010690401, -0.05345249
3025, 3396362656, -121.69551849365234, 66.78523254394531, -9.869906425476074, -0.029904021, 0.0770105, -0.21290588
3031, 3396462658, -121.54915618896484, 66.76679992675781, -9.689239501953125, 0.08748096, 0.014129595, -0.15643215
3035, 3396529326, -121.32975769042969, 66.77305603027344, -9.45155143737793, 0.027294507, -0.057775192, -0.17925549
3038, 3396579327, -121.1941146850586, 66.76220703125, -9.411308288574219, 0.07669076, 0.015607909, -0.15100288
3041, 3396629328, -121.07674407958984, 66.776123046875, -9.347891807556152, 0.09205086, -0.062280383, -0.18645096
3044, 3396679329, -121.04618835449219, 66.76960754394531, -9.39745807647705, 0.034619585, -0.023778649, -0.17942524
3047, 3396729330, -121.06746673583984, 66.792236328125, -9.487459182739258, 0.029098593, 0.01276773, -0.2233324
3050, 3396779331, -121.16788482666016, 66.80059051513672, -9.695599555969238, 0.027780984, 0.010078423, -0.17036438
3053, 3396829332, -121.25778198242188, 66.79240417480469, -9.778825759887695, 0.02540236, -9.1662665E-4, -0.1266098
3060, 3396946001, -121.43114471435547, 66.80401611328125, -10.01445484161377, 0.021951096, 0.0045449124, -0.110141754
3063, 3396996002, -121.38072967529297, 66.8424072265625, -10.087508201599121, 0.07044516, -0.057971757, -0.14403343
3066, 3397046003, -121.38273620605469, 66.82987976074219, -10.22840404510498, 0.004454166, 0.0117261605, -0.19700241
3069, 3397096004, -121.42671203613281, 66.80619049072266, -10.327882766723633, 0.017728936, -0.0049331547, -0.14939785
3072, 3397146005, -121.49742889404297, 66.78852081298828, -10.530814170837402, 0.10811098, -0.026888609, -0.20247269
3075, 3397196006, -121.56208038330078, 66.76199340820312, -10.791339874267578, 0.037414055, -0.031641386, -0.14300537
3079, 3397262674, -121.65199279785156, 66.75191497802734, -11.130746841430664, 0.060352076, 0.01920848, -0.15628052
3082, 3397312675, -121.80974578857422, 66.71082305908203, -11.536059379577637, -0.050222244, 0.13872421, -0.20562744
3085, 3397362676, -122.0323715209961, 66.64635467529297, -11.73803997039795, -0.08561262, 0.07724234, -0.13664818
3088, 3397412677, -122.29651641845703, 66.63322448730469, -11.864435195922852, 0.09139445, 0.18756068, -0.11614609
3097, 3397562680, -122.91646575927734, 66.34890747070312, -11.264653205871582, 0.11314239, -0.1143265, -0.07579994
3101, 3397629348, -122.36946868896484, 66.37459564208984, -10.455582618713379, 0.43747756, -0.1506627, -0.20874786
3104, 3397679349, -121.62873077392578, 66.36280822753906, -9.937220573425293, -0.009293892, -0.045568928, -0.26361656
3107, 3397729350, -121.1103744506836, 66.35628509521484, -9.528463363647461, 0.013450339, -0.05075644, -0.17469406
3110, 3397779351, -120.85377502441406, 66.3150405883789, -9.494402885437012, 0.082123466, 0.12158725, -0.19574356
3113, 3397829352, -120.81804656982422, 66.16230010986328, -9.618502616882324, -0.18650246, 0.03628107, -0.17661381
3116, 3397879353, -121.07714080810547, 66.00502014160156, -9.64198112487793, -0.0056308503, -0.028010197, -0.1860609
3120, 3397946021, -121.2562026977539, 65.8828125, -9.66855239868164, 0.19326048, -0.058949083, -0.077038765
3123, 3397996022, -121.03556060791016, 65.86702728271484, -9.643599510192871, 0.03996613, -0.10224399, -0.17948818
3126, 3398046023, -120.80293273925781, 65.85250091552734, -9.545279502868652, -0.1029352, 0.08070338, -0.24679089
3129, 3398096024, -120.55423736572266, 65.87797546386719, -9.211285591125488, 0.025701197, 0.007705833, -0.19657135
3132, 3398146025, -120.22328186035156, 65.92740631103516, -8.92724609375, 0.09866466, -0.097205564, -0.10730934
3135, 3398196026, -119.94908905029297, 65.94823455810547, -8.794660568237305, -0.0024051112, 0.06451187, -0.16283894
3138, 3398246027, -119.9056625366211, 65.95108795166016, -8.726676940917969, 0.044685494, 0.087387085, -0.23093605
3142, 3398312695, -120.01962280273438, 65.9033203125, -8.585418701171875, -0.07380554, 0.038091525, -0.1864872
3145, 3398362696, -120.18586730957031, 65.9000473022461, -8.484134674072266, 0.2327645, 0.043478858, -0.12433338
3148, 3398412697, -120.157958984375, 65.89999389648438, -8.42536449432373, 0.083593845, -0.037163947, -0.18653679
3151, 3398462698, -120.16751861572266, 65.88050842285156, -8.256088256835938, 0.012910555, -0.04510268, -0.24468899
3154, 3398512699, -120.1236572265625, 65.94066619873047, -7.974603652954102, 0.16300766, -0.041448914, -0.15005684
3160, 3398612701, -119.91120147705078, 65.85674285888672, -7.843550205230713, 0.022042401, 0.6394406, -0.11474419
3164, 3398679369, -118.48509979248047, 65.65129089355469, -5.699923038482666, -0.5385345, 1.0824015, -0.4087391
3167, 3398729370, -116.75137329101562, 65.6699447631836, -2.17642879486084, -0.44188824, 1.0879529, 0.4146633
3170, 3398779371, -112.56803131103516, 65.68329620361328, 3.7971673011779785, -0.1393478, 1.1779491, 0.42755318
3173, 3398829372, -105.57696533203125, 65.45893859863281, 11.861444473266602, -0.27378505, 1.2898895, 0.42665386
3176, 3398879373, -95.97864532470703, 64.67413330078125, 22.216644287109375, -0.6037554, 0.9378738, 0.69901085
3179, 3398929374, -86.38886260986328, 62.616729736328125, 33.126190185546875, -0.25524598, 0.5207827, 0.7644758
3183, 3398996042, -77.35053253173828, 58.56975555419922, 45.737430572509766, -0.9162214, -0.2802146, 0.6329365
3186, 3399046043, -72.25784301757812, 55.16181945800781, 54.3134765625, -0.29875892, -0.71008533, 0.13582516
3192, 3399146045, -65.09845733642578, 48.547115325927734, 66.99008178710938, -0.15976185, -0.9376172, -0.41514587
3198, 3399246047, -58.7624626159668, 43.13724899291992, 76.39196014404297, -0.84923935, -0.39878622, 0.49103737
3201, 3399296048, -55.79119110107422, 40.227535247802734, 81.40025329589844, -0.28156126, -0.8032166, -0.518178
3205, 3399362716, -53.50754165649414, 35.885746002197266, 87.91973876953125, -0.3026547, -0.3478418, 0.7342243
3211, 3399462718, -51.25993347167969, 29.236543655395508, 96.86089324951172, 0.19680774, -0.20116232, 0.002576828
3214, 3399512719, -50.08351135253906, 26.190149307250977, 100.32303619384766, 0.55944717, -0.35509437, -0.79234314
3217, 3399562720, -49.19025802612305, 23.68526840209961, 103.13455963134766, 0.8801213, -0.2219744, -0.43294048
3220, 3399612721, -48.406280517578125, 21.655546188354492, 105.16075897216797, 0.8994276, -0.03303871, -1.0284281
3224, 3399679389, -47.76589584350586, 19.744850158691406, 106.77355194091797, 0.6306637, 0.1554746, -0.45570278
3227, 3399729390, -47.327842712402344, 18.89616584777832, 107.38177490234375, 0.587853, -0.07238098, -0.5471735
3230, 3399779391, -46.89485168457031, 18.05537986755371, 107.7217788696289, 0.096720316, -0.027694931, -0.088653564
3236, 3399879393, -46.44907760620117, 17.014249801635742, 108.13056945800781, -0.31951556, 0.11015456, -0.33492184
3242, 3399979395, -46.61423110961914, 16.291969299316406, 108.51736450195312, -0.0020644653, 0.18307227, -0.38008595
3246, 3400046063, -46.65317916870117, 16.28925895690918, 108.51403045654297, -0.12651739, 0.10256428, -0.33538914
3249, 3400096064, -46.63747024536133, 16.713895797729492, 108.54776000976562, -0.31156364, -0.15796286, 0.9004812
3252, 3400146065, -45.28466796875, 17.18668556213379, 108.93470764160156, 0.84187204, 0.94011694, 0.46599483
3255, 3400196066, -41.004608154296875, 18.144596099853516, 108.65538787841797, 0.7189375, -0.28340036, -1.4798174
3258, 3400246067, -40.29311752319336, 18.494421005249023, 107.73558807373047, -1.0890725, -0.7809327, -0.69688034
3261, 3400296068, -42.423526763916016, 18.796260833740234, 107.76350402832031, -0.09805334, 0.27900565, 0.6622677
3264, 3400346069, -42.79966735839844, 18.43193817138672, 108.02101135253906, -0.14686948, 0.10471054, 1.520751
3268, 3400412737, -40.45553970336914, 17.001609802246094, 108.95359802246094, -0.2536918, 0.023587098, 0.2538376
3274, 3400512739, -37.8837776184082, 16.24781608581543, 109.0503921508789, 0.54527056, -0.42413974, -0.6871729
3277, 3400562740, -38.55996322631836, 16.211355209350586, 108.18362426757812, 0.8623663, -0.24734513, -0.15459251
3280, 3400612741, -39.31729507446289, 16.354450225830078, 107.04253387451172, 0.64412063, -0.2961161, -0.639122
3283, 3400662742, -40.44640350341797, 16.5609073638916, 105.5953598022461, 0.31322017, -0.07712147, -0.54459286
3286, 3400712743, -42.377418518066406, 17.000303268432617, 103.7099609375, 0.22030699, 0.11168227, -0.31079388
3290, 3400779411, -44.63255310058594, 17.806747436523438, 100.8163070678711, 0.05655336, 4.6155424E-4, 0.7843838
3296, 3400879413, -45.695796966552734, 18.391111373901367, 97.76883697509766, -0.863989, 0.10779963, 0.14863586
3302, 3400979415, -46.9634895324707, 18.55014991760254, 96.52503967285156, -0.083072945, 0.23883253, -0.006299019
3305, 3401029416, -46.324161529541016, 18.659400939941406, 96.24707794189453, -0.4549806, 0.30119488, -0.13257027
3309, 3401096084, -45.60953140258789, 18.978050231933594, 96.20636749267578, -0.55385566, 0.043906484, -0.30104828
3312, 3401146085, -46.01259994506836, 19.13353157043457, 96.50230407714844, -0.3185957, 0.13539901, 0.049768448
3315, 3401196086, -46.040626525878906, 19.44875144958496, 96.91857147216797, 0.36651945, 0.24325652, 0.027049065
3318, 3401246087, -45.38050842285156, 19.63779067993164, 97.18119049072266, -0.07625614, 0.054157637, -0.10412407
3321, 3401296088, -44.98276138305664, 19.910188674926758, 97.30335998535156, -0.10676264, 0.18321939, -0.13255882
3324, 3401346089, -45.35177230834961, 20.197303771972656, 97.23017883300781, 0.14117905, 0.005596541, 0.0063495636
3327, 3401396090, -45.852813720703125, 20.514053344726562, 96.88993835449219, 0.19792396, 0.071410604, 0.038020134
3331, 3401462758, -46.08216094970703, 20.986169815063477, 96.15885925292969, 0.24229987, -0.15295437, 0.16949749
3334, 3401512759, -46.1795654296875, 21.350757598876953, 95.4295425415039, 0.1754124, 0.017796325, 0.25259304
3337, 3401562760, -45.867671966552734, 21.853614807128906, 94.60589599609375, -0.46619126, -0.0033404012, 0.30280495
3343, 3401662762, -45.39113235473633, 22.468191146850586, 94.14337921142578, -0.46704793, 0.158296, -0.2361126
3346, 3401712763, -44.757938385009766, 22.455278396606445, 94.54423522949219, -0.51643825, 0.3548333, 0.19517708
3349, 3401762764, -43.059505462646484, 22.304243087768555, 95.20048522949219, -0.25752586, 0.17214587, 0.25892735
3356, 3401879433, -37.55879592895508, 21.01180648803711, 97.22113800048828, -0.11969359, -0.13854271, 0.23269272
3359, 3401929434, -36.52974319458008, 20.19471549987793, 98.06829833984375, 0.10481819, -0.2937319, -0.2817917
3362, 3401979435, -36.733314514160156, 19.527053833007812, 98.64401245117188, 0.71418494, -0.15702489, -0.003376007
3365, 3402029436, -36.57678985595703, 19.223731994628906, 98.71484375, 0.89490646, 0.24724871, -0.08371639
3368, 3402079437, -35.63737487792969, 19.1448974609375, 98.41686248779297, -0.11753245, -0.12728068, 0.06569958
3372, 3402146105, -35.01973342895508, 18.960174560546875, 98.13995361328125, -0.53518826, 0.017751511, -0.33339977
3375, 3402196106, -35.448394775390625, 18.769168853759766, 98.14513397216797, -0.31290445, 0.2700184, 0.032665253
3381, 3402296108, -35.35901641845703, 18.458593368530273, 98.8584213256836, -0.57202005, 0.5425427, 0.1556797
3384, 3402346109, -34.69927215576172, 18.325403213500977, 99.59256744384766, -0.8210728, 0.28064844, 0.20764256
3390, 3402446111, -33.97552490234375, 17.28040313720703, 102.07548522949219, -1.1611724, 0.38210323, 0.8928547
3394, 3402512779, -33.91012191772461, 15.659207344055176, 104.70170593261719, -0.33765313, 0.324109, -0.6759491
3400, 3402612781, -33.367218017578125, 14.02303695678711, 108.03233337402344, 0.33955798, -0.12832281, -0.8024626
3403, 3402662782, -33.11842346191406, 13.70327091217041, 109.23986053466797, 0.8460211, -0.75775754, -0.34845448
3406, 3402712783, -32.80537033081055, 13.829164505004883, 110.12926483154297, 0.968597, -0.3121727, -0.06505394
3416, 3402879453, -33.67756652832031, 14.243804931640625, 111.61593627929688, 1.1892396, -0.2084816, -0.328969
3419, 3402929454, -33.25408935546875, 14.592050552368164, 111.35140228271484, 0.60665363, -0.18435058, -0.03351307
3422, 3402979455, -33.18087387084961, 14.945331573486328, 110.75868225097656, -0.059156448, -0.22689281, 0.28642178
3431, 3403129458, -34.793392181396484, 15.15410327911377, 109.19827270507812, -0.37289995, 0.34884483, 0.119047165
3435, 3403196126, -34.46308517456055, 15.016189575195312, 108.94459533691406, -0.21520732, -0.076159135, 0.067183495
3438, 3403246127, -34.52714920043945, 14.972227096557617, 108.90552520751953, -0.16738774, -0.04923532, 0.030018806
3441, 3403296128, -34.255619049072266, 15.013669967651367, 108.94017028808594, -0.014380768, 0.2660839, 0.18025303
3450, 3403446131, -34.48644256591797, 15.263073921203613, 108.31037902832031, 0.2938544, -0.0758128, 0.07105541
3453, 3403496132, -34.368614196777344, 15.532012939453125, 107.86001586914062, 0.36412647, -0.22422428, 0.009239197
3460, 3403612801, -34.8861198425293, 16.04710578918457, 106.43457794189453, 0.027045403, 0.20264445, 0.106352806
3466, 3403712803, -35.75263977050781, 16.226354598999023, 104.887939453125, -0.20308296, 0.16476588, 0.19007969
3469, 3403762804, -35.804718017578125, 16.230337142944336, 104.23834991455078, -0.4578883, -0.019037046, 0.039754868
3472, 3403812805, -35.80478286743164, 16.183998107910156, 103.84719848632812, -0.5579198, -0.078194775, -0.07967472
3482, 3403979475, -35.560489654541016, 16.557212829589844, 103.8359603881836, 0.09283125, 0.20920634, -0.33051777
3485, 3404029476, -35.40147399902344, 16.838346481323242, 103.83245086669922, -0.12757845, 0.30260357, 0.019690514
3488, 3404079477, -36.040531158447266, 17.126426696777344, 103.77811431884766, -0.28580508, 0.20682268, 0.27789783
3491, 3404129478, -35.998958587646484, 17.45933723449707, 103.73332214355469, -0.42672518, 0.23153472, 0.37580204
3494, 3404179479, -35.844329833984375, 17.675634384155273, 103.77459716796875, -0.43450382, -0.22387505, 0.06841946
3498, 3404246147, -35.87934112548828, 17.74285125732422, 103.99295043945312, -0.30985886, 0.028548528, -0.26587296
3501, 3404296148, -36.028961181640625, 17.83924102783203, 104.27532196044922, -0.5513149, 0.18679582, -0.29754925
3504, 3404346149, -36.3031005859375, 18.028400421142578, 104.66557312011719, -0.6490619, -0.029496223, -0.20061111
3507, 3404396150, -36.367427825927734, 18.353620529174805, 105.16132354736328, -0.008300321, -0.20888326, -0.14060116
3510, 3404446151, -36.21750259399414, 18.97416114807129, 105.40357971191406, 0.52200776, 0.2859053, -0.14020252
3516, 3404546153, -36.71404266357422, 20.224660873413086, 105.09339141845703, 0.35792196, 0.77066404, 1.3773804
3520, 3404612821, -36.68739318847656, 20.87500762939453, 105.80294036865234, -1.7552743, -0.81133425, 0.47083473
3523, 3404662822, -37.441505432128906, 19.849090576171875, 107.74878692626953, -1.8986753, -0.26597372, 1.8800068
3526, 3404712823, -37.14054489135742, 17.88046646118164, 111.49820709228516, -0.5580552, -0.86212915, 1.5229464
3529, 3404762824, -35.90673828125, 14.79011058807373, 115.86486053466797, 1.6548259, 1.0347185, -2.057694
3532, 3404812825, -34.85200881958008, 14.584837913513184, 116.78679656982422, 2.9881356, -3.1235623, 0.86279297
3535, 3404862826, -38.389652252197266, 13.864289283752441, 118.20578002929688, 1.7191633, 1.2911848, -0.73283863
3538, 3404912827, -38.905426025390625, 13.590882301330566, 118.11077117919922, 0.37939224, 0.038952384, -0.94961643
3542, 3404979495, -38.17690658569336, 13.825748443603516, 117.96452331542969, -0.13749231, -0.73873806, 0.028645515
3548, 3405079497, -38.911842346191406, 13.876798629760742, 118.15171813964844, 0.024065863, 0.42927003, 0.64696884
3551, 3405129498, -38.63023376464844, 14.015604019165039, 117.68119812011719, -0.33640733, -0.15712927, 0.2345953
3554, 3405179499, -39.284751892089844, 13.996542930603027, 117.48245239257812, -0.5468363, -0.15828818, 0.010785103
3561, 3405296168, -40.301368713378906, 13.827186584472656, 117.1829605102539, 0.3783576, 0.19698666, -0.5916624
3564, 3405346169, -39.996788024902344, 14.04784107208252, 116.8085708618164, -0.208705, 0.082987234, -0.28371525
3567, 3405396170, -40.26395034790039, 14.32275104522705, 116.46961975097656, -0.257035, 0.06547935, -0.19265461
3570, 3405446171, -40.810386657714844, 14.556099891662598, 116.16480255126953, 0.16533297, 0.062464494, 0.23079205
3573, 3405496172, -40.98583984375, 14.79008674621582, 115.83448791503906, -0.28260085, -0.060445614, -0.023991585
3576, 3405546173, -40.960899353027344, 14.951934814453125, 115.56842803955078, -0.019712726, 0.22375815, -0.097579956
3579, 3405596174, -40.71113967895508, 15.11904239654541, 115.05638122558594, 0.19000311, -0.068376414, -0.060494423
3589, 3405762844, -41.31067657470703, 15.825923919677734, 112.65525817871094, 0.029091595, -0.016852535, 0.18821621
3592, 3405812845, -41.6048698425293, 15.995165824890137, 111.74166870117188, -0.2532899, -0.11116741, 0.05424595
3595, 3405862846, -42.02733612060547, 16.102474212646484, 110.90670013427734, -0.15560648, 0.03862874, 0.077607155
3598, 3405912847, -42.4178352355957, 16.188705444335938, 110.06414031982422, -0.03565378, -0.03872317, 0.09406662
3601, 3405962848, -42.68619155883789, 16.257862091064453, 109.25727081298828, -0.1812775, 0.048874013, -0.09498882
3608, 3406079517, -43.00229263305664, 16.936229705810547, 107.27227020263672, 0.121984765, 0.013928433, -0.093076706
3611, 3406129518, -43.04302978515625, 17.345111846923828, 106.24629211425781, -0.18257722, -0.03840862, -0.18863297
3614, 3406179519, -43.12419891357422, 17.830326080322266, 105.19242095947266, -0.1645964, -0.12160122, 0.28195667
3617, 3406229520, -43.273067474365234, 18.2662353515625, 104.22586059570312, -0.14787707, 0.10190179, -0.18421936
3620, 3406279521, -43.32990646362305, 18.741025924682617, 103.2019271850586, -0.058374543, 0.0065035564, -0.10029793
3627, 3406396190, -43.63376998901367, 20.020559310913086, 101.13533782958984, -0.006172422, 0.049504433, -0.05171776
3630, 3406446191, -43.65924072265625, 20.646024703979492, 100.40259552001953, -0.28539535, 0.011113735, 0.07949829
3633, 3406496192, -43.57740783691406, 21.384952545166016, 99.78314971923828, -0.048813473, 0.1578261, 0.16881466
3636, 3406546193, -43.50580596923828, 22.013898849487305, 99.21214294433594, -0.3105683, -0.12250477, 0.054472923
3639, 3406596194, -43.65972900390625, 22.56411361694336, 98.88912963867188, -0.2633352, -7.9302397E-4, 0.20764828
3646, 3406712863, -44.499610900878906, 23.73341941833496, 98.09559631347656, -0.031955257, 0.13264912, 0.0045900345
3649, 3406762864, -44.44620132446289, 24.086488723754883, 97.84009552001953, -0.05784951, 0.09113473, 0.06533718
3652, 3406812865, -44.27471923828125, 24.39263343811035, 97.55750274658203, -0.15494482, 0.06557222, 0.06237507
3655, 3406862866, -44.0908203125, 24.710437774658203, 97.28416442871094, -0.051390827, 0.056154054, 0.15000725
3658, 3406912867, -44.18086624145508, 24.851316452026367, 96.9235610961914, -0.16073191, -0.037543472, 0.021577835
3664, 3407012869, -44.848976135253906, 24.96629524230957, 96.58702850341797, -0.019401707, -0.15339984, -0.14971066
3668, 3407079537, -44.821834564208984, 25.60401153564453, 96.25106048583984, 0.27649727, -0.15334733, -0.6818571
3671, 3407129538, -45.31632614135742, 26.91136932373047, 95.6166000366211, 0.33133957, -0.8505944, -1.4691505
3674, 3407179539, -47.21735763549805, 29.721294403076172, 94.06991577148438, 1.125318, -0.9191385, -1.5717745
3677, 3407229540, -49.84857940673828, 33.83659362792969, 91.5260238647461, 0.2711976, -1.1421804, -1.0055151
3680, 3407279541, -53.520687103271484, 39.43580627441406, 87.38890075683594, 0.8169278, -0.6023813, -0.781477
3683, 3407329542, -56.54490280151367, 45.28813171386719, 82.1058120727539, 0.027173616, -0.677797, -0.16901207
3687, 3407396210, -63.04225158691406, 52.60894775390625, 73.89823913574219, -0.8920683, -0.7390118, 0.796093
3690, 3407446211, -69.20865631103516, 57.34503173828125, 66.9577407836914, 0.47362435, 0.13690348, 0.96120834
3693, 3407496212, -75.19713592529297, 61.230289459228516, 58.85356140136719, -0.6599996, 0.41808054, 1.6451912
3696, 3407546213, -81.09976196289062, 64.20926666259766, 50.99351119995117, -0.16650537, 0.4768886, -0.07866001
3699, 3407596214, -88.9056396484375, 66.53382110595703, 41.82564926147461, -0.01884041, 0.4793459, 0.636734
3702, 3407646215, -97.1231689453125, 67.82047271728516, 32.8907585144043, 0.39824453, 0.16160768, 0.8118391
3705, 3407696216, -104.35608673095703, 68.04261779785156, 25.09783172607422, -0.051253308, 0.78774035, 0.18406868
3709, 3407762884, -110.79249572753906, 67.71318054199219, 16.11154556274414, -0.093311794, 0.17277172, -0.5033846
3712, 3407812885, -114.35152435302734, 67.15155029296875, 10.474495887756348, -0.6048518, 0.7772659, -0.11336708
3715, 3407862886, -117.17095184326172, 66.52135467529297, 6.390311241149902, -0.7191173, 0.49543905, 0.11386299
3718, 3407912887, -120.08660125732422, 65.99312591552734, 3.372986078262329, -0.426304, 0.18293753, 0.14739323
3721, 3407962888, -122.27596282958984, 65.61421966552734, 0.9471510052680969, -0.011246166, 0.48096055, 0.20009804
3727, 3408062890, -124.87203216552734, 65.33563995361328, -2.4398021697998047, 0.22318819, 0.25579515, -0.2319479
3731, 3408129558, -125.61180114746094, 65.28268432617188, -4.0859880447387695, -0.1520162, 0.16400017, -0.20159721
3737, 3408229560, -126.79314422607422, 65.22826385498047, -5.703248500823975, -0.020676065, 0.12444375, 0.12254906
3740, 3408279561, -127.4296646118164, 65.27996063232422, -6.172174453735352, -0.08841234, 0.14628878, -0.18575287
3743, 3408329562, -127.71977233886719, 65.3845443725586, -6.378293037414551, 0.23951492, 0.06989653, -0.22816277
3749, 3408429564, -127.7881851196289, 65.67176055908203, -6.187270164489746, 0.31936526, 0.123673744, -0.10847187
3753, 3408496232, -127.56419372558594, 65.74681854248047, -6.059057235717773, -0.11085494, -0.26711386, -0.101732254
3759, 3408596234, -127.65911865234375, 65.81761169433594, -6.044278621673584, 0.03534958, -0.26771802, -0.13439369
3762, 3408646235, -127.71875, 65.80743408203125, -6.0931501388549805, 0.21324186, -0.13422176, -0.20695114
3765, 3408696236, -127.76534271240234, 65.76832580566406, -6.233384609222412, 0.23219922, -0.06907221, -0.17570114
3772, 3408812905, -127.3648910522461, 65.5661392211914, -6.501271724700928, 0.043219805, 0.057040058, -0.16956711
3775, 3408862906, -127.42924499511719, 65.42032623291016, -6.550688743591309, -0.18839058, 0.117365316, -0.18273449
3778, 3408912907, -127.56077575683594, 65.2940444946289, -6.5807271003723145, 0.038635332, 0.10911165, -0.15030289
3781, 3408962908, -127.65211486816406, 65.18658447265625, -6.624858379364014, -0.070141494, -0.0017711166, -0.1635189
3784, 3409012909, -127.6968765258789, 65.1511001586914, -6.546937942504883, -0.030879432, -0.013302597, -0.08169365
3787, 3409062910, -127.7142105102539, 65.1263427734375, -6.577597618103027, -0.024852071, -1.7344605E-4, -0.17041779
3794, 3409179579, -128.10577392578125, 65.207763671875, -6.501302719116211, 0.22495607, -0.00858245, -0.07887268
3797, 3409229580, -128.04995727539062, 65.29180145263672, -6.523792266845703, 0.06234145, -0.16676146, -0.20963669
3800, 3409279581, -128.0179443359375, 65.36141967773438, -6.469313144683838, 0.1443459, -0.07009791, -0.21269035
3803, 3409329582, -128.02096557617188, 65.40547180175781, -6.542032718658447, 0.042986795, -0.07872037, -0.18779564
3813, 3409496252, -128.58314514160156, 65.36902618408203, -7.191617965698242, 0.13363358, -0.063417554, -0.12107372
3816, 3409546253, -128.64491271972656, 65.3326187133789, -7.455504894256592, 0.10772721, 0.07020721, -0.1779623
3819, 3409596254, -128.75372314453125, 65.2847900390625, -7.87860631942749, -0.09519216, -0.0166278, -0.14663506
3822, 3409646255, -129.13674926757812, 65.18862915039062, -8.248307228088379, -0.050280023, 0.16130461, 0.05675316
3825, 3409696256, -129.6047821044922, 65.09619903564453, -8.469818115234375, 0.06719258, 0.024894202, -0.13324547
3828, 3409746257, -129.817138671875, 65.06529998779297, -8.435968399047852, 0.053672053, -0.07768752, -0.02420044
3831, 3409796258, -129.61326599121094, 65.11509704589844, -8.132383346557617, 0.19946106, -0.015017165, -0.14740944
3835, 3409862926, -128.72398376464844, 65.28181457519531, -7.435374736785889, 0.10154735, -0.057277568, -0.2880993
3838, 3409912927, -127.97404479980469, 65.39714050292969, -6.917712688446045, 0.118509695, -0.023779767, -0.116256714
3841, 3409962928, -127.50071716308594, 65.51942443847656, -6.6643757820129395, 0.10717379, -0.059843805, -0.24913311
3847, 3410062930, -127.35720825195312, 65.620361328125, -6.681983470916748, -0.05271698, 0.022117948, -0.22318554
3850, 3410112931, -127.61703491210938, 65.65067291259766, -6.871642112731934, 0.14416462, -0.08312961, -0.2958002
