sep=,
DeviceTag:,Xsens_2,,,,,,,,,,,,,,,,,
FirmwareVersion:,2.2.1,,,,,,,,,,,,,,,,,
AppVersion:,2022.0.1,,,,,,,,,,,,,,,,,
SyncStatus:,Synced,,,,,,,,,,,,,,,,,
OutputRate:,60Hz,,,,,,,,,,,,,,,,,
FilterProfile:,General,,,,,,,,,,,,,,,,,
Measurement Mode:,Sensor fusion Mode - Complete (Euler),,,,,,,,,,,,,,,,,
StartTime:,2023-05-17 15:27:09.387 +0200,,,,,,,,,,,,,,,,,
© Xsens Technologies B. V. 2005-2023,,,,,,,,,,,,,,,,,,,

PacketCounter,SampleTimeFine,Euler_X,Euler_Y,Euler_Z,FreeAcc_X,FreeAcc_Y,FreeAcc_Z
1, 3551582427, -108.33091735839844, 82.02989196777344, 87.72366333007812, 0.009229842, -0.018016988, -0.12724876
2, 3551599094, -108.19939422607422, 82.0290298461914, 87.7894287109375, 0.020545423, 0.008752711, -0.15890121
3, 3551615761, -108.05021667480469, 82.02828979492188, 87.8722915649414, 0.013459447, 0.029199006, -0.16270351
4, 3551632428, -107.83009338378906, 82.02944946289062, 88.018310546875, 0.020839818, 0.021628343, -0.1967926
5, 3551649095, -107.57987976074219, 82.03479766845703, 88.18327331542969, 0.05038897, 0.02954735, -0.21370602
6, 3551665762, -107.304443359375, 82.04763793945312, 88.36459350585938, 0.05402723, 0.03393044, -0.25040627
7, 3551682429, -107.00273132324219, 82.07219696044922, 88.56404113769531, 0.0099336, -0.0049295225, -0.2559967
8, 3551699096, -106.76559448242188, 82.10332489013672, 88.70359802246094, -0.061183013, -0.05151415, -0.20989704
9, 3551715763, -106.63609313964844, 82.13803100585938, 88.7439956665039, -0.07762993, -0.026405262, -0.17916965
10, 3551732430, -106.61812591552734, 82.16867065429688, 88.6808090209961, -0.11156773, 0.01614747, -0.17325687
11, 3551749097, -106.66516876220703, 82.18807220458984, 88.56379699707031, -0.18395631, 0.043411355, -0.10158348
12, 3551765764, -106.70807647705078, 82.20295715332031, 88.44965362548828, -0.13506413, 0.028505305, -0.11659145
17, 3551849099, -106.74837493896484, 82.19292449951172, 88.2930679321289, -0.107486635, 0.025796218, -0.07496834
20, 3551899100, -106.83806610107422, 82.09793090820312, 88.358642578125, 0.011420136, -0.013296059, -0.23771954
23, 3551949101, -107.324951171875, 82.03923034667969, 88.08785247802734, 0.025702663, -0.024263617, -0.27001476
26, 3551999102, -107.69892883300781, 82.0372085571289, 87.87141418457031, 0.005921375, -0.067898765, -0.202322
29, 3552049103, -107.80585479736328, 82.07915496826172, 87.81258392333984, 0.0049148123, -0.07820662, -0.24435234
32, 3552099104, -107.89509582519531, 82.10138702392578, 87.76107788085938, 0.024162253, 0.017976196, -0.1541357
35, 3552149105, -107.80674743652344, 82.14640045166016, 87.65642547607422, 0.026339507, 0.08011523, -0.20841408
39, 3552215773, -107.30760955810547, 82.15792846679688, 87.87581634521484, -0.014687211, -0.0063213934, -0.1916523
42, 3552265774, -107.27819061279297, 82.13583374023438, 87.89766693115234, -0.032073487, -0.030643795, -0.19240284
45, 3552315775, -107.30584716796875, 82.126953125, 87.85952758789062, -0.07598749, 0.0072621596, -0.13437176
51, 3552415777, -106.63459014892578, 82.0848617553711, 88.31949615478516, -0.0262735, 0.053746566, -0.1873188
54, 3552465778, -106.37906646728516, 82.09452819824219, 88.5301284790039, -0.040304415, 0.06493487, -0.20794964
57, 3552515779, -106.34139251708984, 82.0443115234375, 88.5400161743164, -0.034875724, 0.060333382, -0.15708542
64, 3552632448, -106.28704071044922, 81.80899810791016, 88.32847595214844, 0.06692435, -0.03843459, -0.24869633
70, 3552732450, -108.7074966430664, 81.95336151123047, 85.4254379272461, -0.1964617, 0.02750028, -0.0848217
73, 3552782451, -110.27651977539062, 81.97419738769531, 83.91771697998047, -0.11703192, -0.018205885, -0.17813778
76, 3552832452, -110.96224975585938, 81.93264770507812, 83.67095947265625, -0.10471039, 0.024184885, -0.13959694
80, 3552899120, -110.66390228271484, 81.89582061767578, 84.500732421875, 0.05255285, 0.027420122, -0.23035717
83, 3552949121, -109.77958679199219, 81.97698974609375, 85.27091979980469, 0.11655507, 0.08554213, -0.181674
86, 3552999122, -109.23143768310547, 82.11111450195312, 85.37666320800781, 0.045384787, -0.058834143, -0.17319584
92, 3553099124, -110.16860961914062, 82.20991516113281, 83.71995544433594, -0.12376086, 0.003632421, -0.102422714
95, 3553149125, -110.98160552978516, 82.1780014038086, 82.99281311035156, -0.24411596, 0.119398974, -0.07168293
98, 3553199126, -111.017333984375, 82.12892150878906, 83.05126953125, -0.15850738, 0.05603319, -0.15573311
102, 3553265794, -110.6517562866211, 82.10096740722656, 83.73339080810547, -0.12326001, -0.114102915, -0.27599907
105, 3553315795, -110.4808578491211, 82.11360168457031, 84.32376861572266, -0.054550424, -0.0031611437, -0.2978325
108, 3553365796, -109.99724578857422, 82.13037109375, 85.12128448486328, 0.032702878, -0.074907795, -0.20111084
111, 3553415797, -109.82971954345703, 82.12308502197266, 85.640625, 0.21246985, -0.036002684, -0.17164135
117, 3553515799, -108.90702819824219, 82.13506317138672, 86.3678970336914, 0.14495616, 0.005419463, -0.22828484
120, 3553565800, -108.09601593017578, 82.1561508178711, 86.8070068359375, 0.033797435, -0.15054084, -0.3178959
124, 3553632468, -107.75040435791016, 82.14967346191406, 86.85345458984375, -0.03757736, -0.15414618, -0.29227638
133, 3553782471, -106.95988464355469, 82.04771423339844, 87.83340454101562, -0.059038825, 0.031442992, 0.0085840225
136, 3553832472, -105.78770446777344, 81.948974609375, 88.77352142333984, -0.005102249, 0.03357103, -0.07117939
139, 3553882473, -104.5362548828125, 81.85208892822266, 89.850341796875, -0.026762072, 0.03422897, -0.04862404
146, 3553999142, -103.29214477539062, 81.64006042480469, 90.83433532714844, -0.101047456, 0.029443836, -0.23957062
149, 3554049143, -103.44662475585938, 81.52615356445312, 90.70343780517578, -0.2005134, 0.07582305, -0.1708889
152, 3554099144, -103.39083862304688, 81.41768646240234, 90.741943359375, -0.14429432, -0.030690396, -0.18271351
155, 3554149145, -103.24781799316406, 81.32283020019531, 90.98851776123047, -0.17524004, 0.023951452, -0.08777714
158, 3554199146, -102.45096588134766, 81.19438171386719, 91.82821655273438, -0.03908201, 0.05647119, -0.21595478
161, 3554249147, -101.20063018798828, 81.07546997070312, 93.096923828125, 0.11153197, -0.017007967, -0.28163815
165, 3554315815, -100.9936294555664, 80.98262786865234, 93.30027770996094, 0.112396285, -0.128705, -0.31616783
168, 3554365816, -101.80565643310547, 80.9307861328125, 92.60484313964844, 0.051062185, -0.0037816996, -0.17001057
171, 3554415817, -102.34376525878906, 80.93548583984375, 92.07057189941406, -0.009000601, -0.082382515, -0.053954124
174, 3554465818, -102.73955535888672, 80.94227600097656, 91.69730377197266, -0.0073479745, -0.0057950485, -0.15462112
177, 3554515819, -102.7797622680664, 80.95716857910156, 91.60636138916016, -0.067566566, 0.044695605, -0.20175648
180, 3554565820, -102.64509582519531, 80.9853744506836, 91.58697509765625, -0.037117086, -0.04583667, -0.24913025
184, 3554632488, -102.72837829589844, 80.99578094482422, 91.4540786743164, -0.13472864, 0.06936546, -0.22225475
187, 3554682489, -102.5799789428711, 81.01242065429688, 91.5037841796875, -0.028414294, -0.056404248, -0.19926357
190, 3554732490, -102.42195892333984, 81.01384735107422, 91.67948913574219, -0.010314054, -0.017421493, -0.1717329
193, 3554782491, -102.31165313720703, 81.05259704589844, 91.80093383789062, 0.041389097, -0.057300285, -0.20593739
199, 3554882493, -101.90644836425781, 81.15338897705078, 92.07012939453125, -0.04091017, -0.032554243, -0.14510727
202, 3554932494, -101.89939880371094, 81.21110534667969, 92.02539825439453, -0.052829817, -0.008180742, -0.07628727
209, 3555049163, -101.66549682617188, 81.2455062866211, 92.06629180908203, -0.047179274, -0.007213853, -0.18289185
212, 3555099164, -101.34148406982422, 81.23283386230469, 92.37069702148438, -0.037610132, -0.042179186, -0.17015076
215, 3555149165, -101.16697692871094, 81.2107925415039, 92.52814483642578, 0.0165324, -0.045427192, -0.25001907
218, 3555199166, -101.1578140258789, 81.1878890991211, 92.68959045410156, -0.0073128967, -0.07642841, -0.23449516
224, 3555299168, -101.4865951538086, 81.12617492675781, 92.51160430908203, -0.019152762, -0.02063508, -0.17228985
228, 3555365836, -101.39622497558594, 81.13691711425781, 92.51528930664062, -0.008863776, -0.052255932, -0.24589348
231, 3555415837, -101.54814147949219, 81.18182373046875, 92.33724212646484, -0.046982653, -0.05608496, -0.21022701
234, 3555465838, -101.84661865234375, 81.2108154296875, 92.09125518798828, -0.017943725, -0.026073793, -0.1387577
240, 3555565840, -101.37677001953125, 81.1871109008789, 92.49488830566406, 0.014980663, -0.0641618, -0.20880032
243, 3555615841, -101.4097900390625, 81.16020202636719, 92.5411376953125, -0.011899822, -0.006446058, -0.21119976
246, 3555665842, -101.69515991210938, 81.14689636230469, 92.29934692382812, -0.037575107, -0.061172284, -0.17672157
250, 3555732510, -101.6978988647461, 81.14845275878906, 92.27119445800781, -0.06205224, -0.039912485, -0.17988205
253, 3555782511, -101.95085144042969, 81.1554183959961, 92.10208892822266, -0.024924433, -0.018166741, -0.18751144
256, 3555832512, -102.34308624267578, 81.15815734863281, 91.8514404296875, -0.02943204, 0.04050661, -0.16230488
259, 3555882513, -102.17408752441406, 81.19192504882812, 91.9422607421875, -0.022805614, -0.056242928, -0.24292088
265, 3555982515, -103.0667953491211, 81.21302795410156, 91.159423828125, -0.009072838, -0.034862153, -0.12922764
272, 3556099184, -102.71544647216797, 81.21432495117188, 91.40058898925781, 0.0039060425, 0.0087057175, -0.21001053
275, 3556149185, -102.65087127685547, 81.19422149658203, 91.399169921875, 0.037052587, -0.024566477, -0.25163078
284, 3556299188, -103.88789367675781, 81.40227508544922, 89.9811019897461, -0.076178, 0.013930473, -0.12474728
291, 3556415857, -104.04175567626953, 81.2941665649414, 90.19536590576172, 0.033480152, 0.021251025, -0.18111801
294, 3556465858, -104.08277893066406, 81.242919921875, 90.16007232666016, 0.037290126, -7.8229533E-7, -0.18178082
297, 3556515859, -104.26132202148438, 81.2000732421875, 89.92487335205078, -0.038486596, 0.001555734, -0.1668415
300, 3556565860, -104.11137390136719, 81.19498443603516, 89.93815612792969, -0.031725924, -0.052492827, -0.1765747
303, 3556615861, -103.87603759765625, 81.18720245361328, 90.11075592041016, -0.06910253, -0.06879841, -0.19707012
309, 3556715863, -103.93272399902344, 81.17124938964844, 89.85716247558594, -0.047093783, 0.0019003071, -0.16445446
313, 3556782531, -103.46147918701172, 81.1344985961914, 90.36505889892578, -0.038273487, 0.021475013, -0.13135242
316, 3556832532, -103.21971130371094, 81.07989501953125, 90.53516387939453, 0.010704238, 0.05247805, -0.21232033
319, 3556882533, -102.79084777832031, 81.03601837158203, 90.88451385498047, -0.029175209, -0.011540561, -0.37597656
328, 3557032536, -103.00692749023438, 80.90694427490234, 90.77003479003906, -0.06809, -0.08072064, -0.11658287
332, 3557099204, -101.96974182128906, 80.88473510742188, 91.73846435546875, -0.017922107, -0.12529041, -0.30544758
335, 3557149205, -101.6688232421875, 80.87663269042969, 92.09302520751953, 0.0020575556, -0.06667791, -0.15588665
338, 3557199206, -101.49052429199219, 80.88697052001953, 92.19334411621094, 0.055858802, -0.07275297, -0.21922493
341, 3557249207, -101.39091491699219, 80.88919830322266, 92.33273315429688, 0.113931514, 0.018508773, -0.13006306
344, 3557299208, -101.00839233398438, 80.90502166748047, 92.6133041381836, 0.09104868, -0.0102866525, -0.241498
347, 3557349209, -100.82205963134766, 80.90325164794922, 92.73185729980469, 0.04665078, -0.009856251, -0.2890272
350, 3557399210, -100.96685791015625, 80.90132141113281, 92.46525573730469, 0.0034550424, -0.09865907, -0.3853531
354, 3557465878, -101.94264221191406, 80.9173583984375, 91.52628326416016, -0.06842187, -0.18976049, -0.13447666
357, 3557515879, -102.58866882324219, 80.96715545654297, 90.8235092163086, -0.04970412, -0.1846729, -0.04328537
360, 3557565880, -102.59516143798828, 81.06576538085938, 90.70783233642578, -0.07787849, -0.14401406, -0.07227516
363, 3557615881, -102.20321655273438, 81.18279266357422, 90.98690032958984, -0.11365179, -0.049033295, -0.21153736
366, 3557665882, -101.94563293457031, 81.26913452148438, 91.14091491699219, -0.092131294, 0.040028013, -0.22444057
369, 3557715883, -101.71861267089844, 81.3353271484375, 91.22918701171875, -0.06682679, 0.07923811, -0.1514473
372, 3557765884, -101.45111846923828, 81.37588500976562, 91.43101501464844, -0.08563637, 0.09180982, -0.16719627
376, 3557832552, -101.56410217285156, 81.3952407836914, 91.34441375732422, -0.046701998, 0.01687791, -0.16105747
379, 3557882553, -101.72905731201172, 81.37226867675781, 91.18487548828125, -0.056406464, -0.055825938, -0.14088058
385, 3557982555, -101.69873809814453, 81.3907241821289, 91.2179183959961, -0.002508891, -0.097043656, -0.21343994
388, 3558032556, -101.65623474121094, 81.3821792602539, 91.27445220947266, -0.029407753, 0.034751654, -0.15658665
398, 3558199226, -100.95591735839844, 81.46846008300781, 91.94087982177734, -0.092052095, -0.05832484, -0.17053032
401, 3558249227, -100.59744262695312, 81.47992706298828, 92.23003387451172, -0.046129756, -0.02640719, -0.09034824
404, 3558299228, -99.09819793701172, 81.45291900634766, 93.51937103271484, 0.08652754, 0.030140862, -0.09049988
407, 3558349229, -97.36389923095703, 81.39910888671875, 94.98827362060547, 0.049551014, 0.040813465, -0.19827938
417, 3558515899, -96.79571533203125, 81.12095642089844, 95.14462280273438, 0.06778597, 0.014035747, 0.08267403
420, 3558565900, -94.8148193359375, 80.9231185913086, 96.51470947265625, 0.31545866, 0.69679993, 0.25530624
423, 3558615901, -89.88831329345703, 80.25611877441406, 99.88784790039062, 0.27667528, 1.7490076, 0.16701984
426, 3558665902, -80.94512939453125, 78.5587158203125, 104.74720764160156, -0.1576317, 2.539923, 1.3922949
429, 3558715903, -69.85626220703125, 75.63785552978516, 111.00717163085938, -0.4601173, 0.45666617, 0.5132303
432, 3558765904, -65.13897705078125, 71.15106964111328, 113.67362976074219, -0.77069443, 1.1317433, 0.995945
442, 3558932574, -57.82957458496094, 55.16321563720703, 115.78263854980469, -0.21814422, -0.6403853, -0.48710918
448, 3559032576, -56.23493957519531, 47.44694900512695, 115.33264923095703, -0.15206096, -0.862464, -0.5888119
451, 3559082577, -55.63302230834961, 44.304420471191406, 115.1804428100586, -0.29498237, -0.84414285, -0.37439156
454, 3559132578, -54.52934265136719, 41.607723236083984, 115.26013946533203, 0.121782154, -0.9612321, -0.54235077
458, 3559199246, -53.35832214355469, 38.811668395996094, 115.6839370727539, -0.23791233, -0.6917133, -0.90506077
461, 3559249247, -52.91692352294922, 37.33967971801758, 116.22909545898438, -0.5919039, -0.3169615, -0.56466484
464, 3559299248, -53.350650787353516, 35.91020584106445, 117.03650665283203, -1.8395503, -1.6115791, 0.48156452
467, 3559349249, -53.96779251098633, 34.000118255615234, 118.97371673583984, -2.075763, -1.5123893, 1.0172367
470, 3559399250, -52.03440856933594, 30.900108337402344, 122.50802612304688, -1.1471927, -0.18440254, 1.6220217
473, 3559449251, -48.43519973754883, 26.872180938720703, 125.79875183105469, -0.31880614, -0.47843173, 0.17537308
480, 3559565920, -44.957550048828125, 18.059810638427734, 134.2163543701172, -0.14348906, -1.2697681, 0.27597427
483, 3559615921, -43.841434478759766, 14.354031562805176, 138.56423950195312, 0.2603969, -0.93341357, 1.1360731
486, 3559665922, -42.32372283935547, 9.680769920349121, 143.05433654785156, -0.42497513, -2.7897117, 0.83715343
492, 3559765924, -41.50434875488281, -1.240981936454773, 154.3641815185547, 0.59424806, -0.8051262, 0.057703972
498, 3559865926, -46.10360336303711, -9.986522674560547, 173.77691650390625, 4.5516276, 11.965088, -7.1817856
502, 3559932594, -47.890724182128906, -14.325394630432129, 174.53318786621094, -0.0039138095, 4.0715084, 6.67099
505, 3559982595, -50.10685729980469, -15.287440299987793, 176.88473510742188, -2.7831044, -2.1086888, -0.8097706
508, 3560032596, -51.21076965332031, -15.820646286010742, 177.62509155273438, -0.5332419, 0.029917063, 0.33428
511, 3560082597, -51.242916107177734, -16.565576553344727, 177.41844177246094, 1.2095184, -0.11401128, -0.06994724
514, 3560132598, -51.03179168701172, -17.127376556396484, 177.46148681640625, 0.56477696, 0.008049372, -0.27017784
521, 3560249267, -50.895790100097656, -17.5731143951416, 177.98727416992188, 0.5494535, 0.100996956, 0.2891817
524, 3560299268, -51.13079833984375, -17.74204444885254, 178.18333435058594, -0.08787644, 0.17008378, -0.05739975
527, 3560349269, -51.020442962646484, -17.80092430114746, 178.24114990234375, 0.14798181, -0.00928486, -0.101662636
530, 3560399270, -50.954246520996094, -17.646902084350586, 177.94638061523438, 0.08058405, 0.92091274, -0.42350674
533, 3560449271, -51.36545181274414, -17.070890426635742, 176.30148315429688, 0.6124842, 1.9355232, -0.94155025
536, 3560499272, -51.42119598388672, -15.81176471710205, 173.6984405517578, 2.7453337, 1.7785628, -1.2053242
543, 3560615941, -49.8925895690918, -8.322588920593262, 160.54965209960938, 2.6384037, 0.32463393, -1.4949989
549, 3560715943, -51.1730842590332, 5.480846881866455, 147.5780029296875, 0.8188118, -2.6609225, -1.0350323
552, 3560765944, -52.64479446411133, 14.471851348876953, 142.0921630859375, -0.49679923, -2.0568483, -0.6172867
555, 3560815945, -54.825862884521484, 23.819643020629883, 137.40374755859375, -1.260149, -3.0340598, 0.6130657
558, 3560865946, -56.78178024291992, 32.35746383666992, 133.380859375, -1.86922, -1.8490473, 1.7592525
561, 3560915947, -57.177913665771484, 39.76130294799805, 129.992919921875, -2.221824, -1.4531715, 0.92815113
565, 3560982615, -58.63807678222656, 47.49066925048828, 125.66859436035156, -1.5316397, 0.14642411, 1.222888
568, 3561032616, -58.29139709472656, 52.46481704711914, 123.0269775390625, -1.3239073, -0.26949465, 0.1721592
571, 3561082617, -59.04972457885742, 57.244815826416016, 120.29190063476562, -0.6942349, -0.006180636, 0.1408453
574, 3561132618, -60.9188346862793, 62.03731155395508, 117.03095245361328, -0.5958388, -0.77693915, 0.14324474
577, 3561182619, -65.21183013916016, 66.72208404541016, 112.6761245727539, -0.3451884, -1.2112496, 0.61743355
580, 3561232620, -71.81147766113281, 71.072509765625, 107.65421295166016, -0.14072384, -1.092242, 1.1676245
583, 3561282621, -78.4977798461914, 74.20369720458984, 104.3118896484375, -0.38115525, -0.28122053, 1.4381399
590, 3561399290, -73.78749084472656, 78.29822540283203, 116.94469451904297, -0.4994412, 0.61718774, 0.48202324
593, 3561449291, -65.46004486083984, 78.92613220214844, 128.71856689453125, -0.4097363, 1.2313131, 0.12651157
596, 3561499292, -63.79269027709961, 78.53719329833984, 133.5379180908203, 1.12005, 2.097463, -0.38665104
599, 3561549293, -64.71021270751953, 78.872314453125, 133.00071716308594, 1.8104852, 1.7497926, -0.4774437
606, 3561665962, -68.45064544677734, 79.1302719116211, 126.51251983642578, -0.18448925, -0.6543959, -0.006383896
609, 3561715963, -71.0909423828125, 78.8182373046875, 124.01036071777344, -0.42180607, -0.9842086, -0.25638676
615, 3561815965, -72.14307403564453, 78.57879638671875, 122.91141510009766, -0.3163244, -0.87787676, -0.31805897
618, 3561865966, -70.60582733154297, 78.51589965820312, 124.55858612060547, -0.4270083, -0.60259193, -0.27438736
621, 3561915967, -68.02713775634766, 78.46894836425781, 127.51534271240234, -0.35251436, -0.31924266, -0.11832142
624, 3561965968, -64.32675170898438, 78.25566101074219, 131.67550659179688, -0.061356124, -0.18943428, -0.044107437
631, 3562082637, -64.54273986816406, 78.3682632446289, 130.5936737060547, -0.121942915, -0.21767718, 0.15476799
634, 3562132638, -65.24044799804688, 78.28866577148438, 130.1757049560547, -0.07126817, -0.2799609, -0.11581802
637, 3562182639, -65.80856323242188, 78.15929412841797, 130.08738708496094, -0.3393708, -0.17718436, -0.11817455
640, 3562232640, -65.68803405761719, 78.16520690917969, 130.19744873046875, -0.26083156, -0.20545897, -0.15920258
643, 3562282641, -65.54969787597656, 78.18406677246094, 130.22113037109375, -0.11171655, 0.058796592, -0.19459248
647, 3562349309, -65.43494415283203, 78.22744750976562, 130.0605010986328, 0.1481358, 0.018451246, -0.089099884
650, 3562399310, -65.60220336914062, 78.2238998413086, 129.95587158203125, 0.104373746, 0.11327184, -0.21355438
653, 3562449311, -65.84733581542969, 78.20890808105469, 129.79229736328125, -0.025293935, 0.020235661, -0.18452358
659, 3562549313, -65.99314880371094, 78.11038208007812, 129.64212036132812, 0.019046362, -0.17576444, -0.17281055
662, 3562599314, -65.87245178222656, 78.072509765625, 129.69598388671875, 0.065352716, -0.14976354, -0.12359047
669, 3562715983, -65.09231567382812, 78.04476928710938, 130.29739379882812, -0.07371158, 0.025509004, -0.08923435
672, 3562765984, -64.89016723632812, 78.02140045166016, 130.47372436523438, -0.17715372, 0.13366394, -0.064107895
675, 3562815985, -64.67459106445312, 77.98943328857422, 130.5582733154297, -0.059809774, 0.03905185, -0.23201084
678, 3562865986, -64.74563598632812, 77.98102569580078, 130.44483947753906, 0.0112156635, 0.016227962, -0.20248127
681, 3562915987, -64.84245300292969, 77.96356201171875, 130.2801513671875, 0.034577593, -0.120158054, -0.18376446
684, 3562965988, -64.89071655273438, 77.93473052978516, 130.20948791503906, -0.011700687, -0.08726656, -0.10482979
687, 3563015989, -64.59386444091797, 77.86981201171875, 130.3311004638672, -0.020231785, -0.16191575, -0.2301445
691, 3563082657, -64.00904846191406, 77.83627319335938, 130.62193298339844, -0.0014623195, -0.10638524, -0.15380001
694, 3563132658, -63.86117172241211, 77.86428833007812, 130.61509704589844, -0.09441105, -0.002975656, -0.08660221
697, 3563182659, -63.6126594543457, 77.86734008789062, 130.69012451171875, -0.034259446, 0.04061334, -0.14605522
703, 3563282661, -63.66299057006836, 77.78608703613281, 130.40151977539062, -0.07172275, -0.10349318, -0.06892109
706, 3563332662, -63.96176528930664, 77.76642608642578, 130.13479614257812, -0.017942768, -0.11667519, 0.0562582
710, 3563399330, -63.86463165283203, 77.74256896972656, 130.25503540039062, -0.021604573, -0.013448272, -0.19763565
713, 3563449331, -63.8848991394043, 77.7416763305664, 130.30735778808594, -0.07342742, 0.024479894, -0.19554424
719, 3563549333, -64.33595275878906, 77.77165222167969, 129.88124084472656, -0.14586326, 0.11374035, -0.07021618
722, 3563599334, -64.9538803100586, 77.75630950927734, 129.3844451904297, 0.005387787, 0.20037967, 0.012580872
725, 3563649335, -65.89946746826172, 77.69547271728516, 128.51260375976562, -0.06961671, 0.1534881, -0.26995373
732, 3563766004, -65.65100860595703, 77.52995300292969, 128.60450744628906, -0.11073097, -0.24072787, -0.034301758
735, 3563816005, -65.30847930908203, 77.45626068115234, 128.89686584472656, -0.0677385, 0.14824902, 0.21989155
738, 3563866006, -64.3730697631836, 77.18112182617188, 129.2345428466797, 0.09518714, 0.05860311, -0.0016670227
741, 3563916007, -63.33048629760742, 76.75149536132812, 129.82476806640625, 0.22269283, -0.026951639, -0.24694061
744, 3563966008, -62.278465270996094, 76.39264678955078, 130.56776428222656, 0.058414392, 0.006816265, -0.34720135
747, 3564016009, -62.97544479370117, 76.31995391845703, 129.88092041015625, -0.08561496, -0.066302784, -0.23704529
750, 3564066010, -65.16761779785156, 76.31692504882812, 127.98725891113281, 0.1492223, -0.16409089, -0.37760258
754, 3564132678, -66.96112060546875, 76.41326141357422, 126.39527130126953, -0.123273306, 0.1133184, 0.11066055
757, 3564182679, -66.92633819580078, 76.5358657836914, 126.04978942871094, -0.24084188, -0.40221068, -0.09125519
763, 3564282681, -67.7107162475586, 76.63837432861328, 125.6282958984375, -0.3003106, 0.3121128, -0.13320827
766, 3564332682, -67.96604919433594, 76.62599182128906, 125.62469482421875, -0.54397535, 0.4159658, -0.1298523
769, 3564382683, -69.88267517089844, 76.40735626220703, 125.05912780761719, -2.3671784, 2.0845942, 0.49111652
779, 3564549353, -66.7863998413086, 65.87751770019531, 132.72848510742188, -2.4262948, 0.6820071, 2.9649878
782, 3564599354, -63.0135383605957, 59.078548431396484, 137.33152770996094, -0.7894483, -0.3899686, 2.5584593
785, 3564649355, -59.93037414550781, 51.652976989746094, 140.8603973388672, 0.4363774, -1.1325641, 1.7179441
788, 3564699356, -57.873416900634766, 44.34169006347656, 143.34840393066406, 1.0753355, -1.504338, 0.5052967
791, 3564749357, -56.67103958129883, 37.79499816894531, 145.08396911621094, 1.7903267, -1.359755, -0.6696806
795, 3564816025, -55.99292755126953, 30.56147003173828, 146.93495178222656, 1.9323388, -1.3634344, -1.5726538
798, 3564866026, -55.86978530883789, 26.405885696411133, 148.11480712890625, 1.5688891, -0.87179226, -1.7460318
801, 3564916027, -55.89906692504883, 23.315671920776367, 149.0811004638672, 1.4175397, -0.48507828, -1.9197865
804, 3564966028, -56.466575622558594, 21.069196701049805, 149.70579528808594, 1.1216066, -0.10570155, -1.6368856
807, 3565016029, -56.90300369262695, 19.57999610900879, 150.0109405517578, 0.8553332, -0.09607568, -1.3904085
813, 3565116031, -57.18427276611328, 18.465530395507812, 149.965087890625, -0.3274752, -0.3322201, -0.7606859
817, 3565182699, -56.32211685180664, 18.714292526245117, 149.58197021484375, -0.20276634, -0.78601485, -0.27607727
820, 3565232700, -55.10717010498047, 19.02409553527832, 149.58578491210938, -0.0719553, -1.028544, -0.09145832
826, 3565332702, -51.765052795410156, 19.4641056060791, 151.1762237548828, 0.08966722, -0.9971039, -0.04095745
829, 3565382703, -50.72117614746094, 19.51207160949707, 152.80538940429688, 0.10108373, -1.3696883, 0.4319563
832, 3565432704, -49.18499755859375, 19.1888484954834, 155.13999938964844, 0.30844602, -0.66438544, -0.21985245
836, 3565499372, -48.753116607666016, 18.329065322875977, 158.7177734375, 0.31832218, -1.5139456, 0.028783798
839, 3565549373, -49.87966537475586, 17.00131607055664, 162.5940399169922, 1.1129923, -2.0206378, 1.6082525
842, 3565599374, -48.21654510498047, 16.003398895263672, 166.04159545898438, 2.1564753, 10.700873, -0.45174026
845, 3565649375, -48.401947021484375, 16.5650691986084, 166.78109741210938, 0.65748304, 1.3176112, 0.5770712
851, 3565749377, -48.85260772705078, 15.756789207458496, 169.0864715576172, 0.22777677, -0.21000944, 0.23009777
854, 3565799378, -49.45450973510742, 14.715721130371094, 169.80072021484375, 1.2243026, 0.7430532, -0.81984615
858, 3565866046, -49.990821838378906, 14.188711166381836, 170.6389617919922, 2.5563998, 1.2306523, -2.8756604
861, 3565916047, -49.72104263305664, 14.97026538848877, 170.98020935058594, 2.4665167, 0.3078117, -4.369873
864, 3565966048, -51.59691619873047, 17.36939239501953, 170.10064697265625, 1.7891155, 0.35021463, -1.6262817
867, 3566016049, -52.59321594238281, 20.9945068359375, 168.89869689941406, 0.7300567, 0.3871653, -0.40540886
870, 3566066050, -55.48915481567383, 24.68505859375, 166.12481689453125, -0.39225367, -0.12800781, 4.121586
873, 3566116051, -55.61442947387695, 26.338516235351562, 164.5277099609375, -2.191308, -0.22488458, 4.695856
876, 3566166052, -55.40754318237305, 25.55792236328125, 163.73817443847656, -3.895184, -0.54943687, 3.9330807
880, 3566232720, -54.209476470947266, 21.01446533203125, 164.04092407226562, -3.4345195, 1.2774901, 3.1823282
886, 3566332722, -52.289066314697266, 10.131765365600586, 164.49087524414062, -0.28163195, 0.3832956, 0.9843292
892, 3566432724, -52.78767013549805, -1.0786418914794922, 164.64712524414062, 0.216363, -0.14470476, -1.200489
895, 3566482725, -53.56940460205078, -5.398684501647949, 164.57188415527344, 0.43660015, -0.49042335, -1.2790718
899, 3566549393, -54.092960357666016, -9.352136611938477, 164.71487426757812, -0.14442977, -0.39825714, -1.4146385
902, 3566599394, -54.380611419677734, -11.280035972595215, 164.51402282714844, -1.0898983, -0.16477364, -1.4873228
905, 3566649395, -54.657352447509766, -12.341638565063477, 163.65264892578125, -0.45918345, 0.31061405, -1.0632477
908, 3566699396, -53.99345016479492, -11.79260540008545, 162.33717346191406, -2.651373, 0.76164407, -2.670435
911, 3566749397, -57.10560607910156, -9.758082389831543, 161.5582733154297, 24.158272, -13.327692, 1.4571447
914, 3566799398, -55.81679916381836, -9.876620292663574, 160.62474060058594, -1.5106807, 2.0760438, -2.1258984
917, 3566849399, -55.48577880859375, -9.354143142700195, 160.6367950439453, 1.4119197, -2.3661408, -2.0053005
921, 3566916067, -56.70811080932617, -8.321791648864746, 161.48146057128906, -1.1944834, -0.7538565, -2.2406812
924, 3566966068, -57.842716217041016, -7.415853023529053, 161.74130249023438, 0.77492774, 0.6158933, -0.26186943
927, 3567016069, -57.912574768066406, -6.659012317657471, 161.86727905273438, -0.46898708, 0.72790766, 0.1781292
930, 3567066070, -57.39131546020508, -6.0590901374816895, 161.517578125, 0.15888502, 0.38159192, 0.83678055
933, 3567116071, -56.775272369384766, -5.612813472747803, 161.04502868652344, 0.046993487, 0.021180028, 0.37830734
936, 3567166072, -57.071510314941406, -4.9317097663879395, 160.6868133544922, 0.5876728, 0.17111701, -0.19112587
939, 3567216073, -57.61425018310547, -3.9299354553222656, 160.37814331054688, 0.5709963, 0.6646094, -1.0261927
943, 3567282741, -58.8798713684082, -1.5776307582855225, 159.50193786621094, 0.83092767, 0.72645754, -1.5532045
946, 3567332742, -59.48790740966797, 1.3113222122192383, 158.2942657470703, 0.9292111, 0.5120905, -1.1578293
952, 3567432744, -61.144309997558594, 8.556476593017578, 155.103515625, 1.1207483, -0.67668086, -0.5909586
955, 3567482745, -61.33280944824219, 12.471912384033203, 153.2616424560547, 0.6378483, -0.5545576, -0.2917757
958, 3567532746, -61.42030715942383, 16.225841522216797, 151.4477081298828, 0.8414535, -0.51207477, 0.17981339
965, 3567649415, -60.994224548339844, 24.483949661254883, 147.8067169189453, 0.09136064, -0.5288441, 0.19329453
968, 3567699416, -61.13343048095703, 28.063222885131836, 146.1488800048828, -0.2870002, -0.3988159, 0.71669865
971, 3567749417, -60.4512939453125, 31.873153686523438, 144.56005859375, -0.19676492, -0.5234728, 0.080560684
974, 3567799418, -60.60212326049805, 35.73963928222656, 143.02447509765625, -0.24666473, -0.88558763, 0.38821507
977, 3567849419, -60.155540466308594, 39.608665466308594, 141.9665069580078, -0.36495864, -0.6113175, 0.45894337
980, 3567899420, -59.721160888671875, 43.67192840576172, 141.270263671875, -0.50851756, -0.63654655, 0.028757095
984, 3567966088, -59.44649887084961, 49.184471130371094, 140.339111328125, -0.8568022, -0.47420296, 0.46208382
990, 3568066090, -56.850364685058594, 56.72591018676758, 139.72898864746094, -1.1963496, 0.6689556, 0.8854952
996, 3568166092, -53.94778060913086, 61.439422607421875, 138.86920166015625, -1.0568889, 1.1871643, 0.69728374
999, 3568216093, -52.51541519165039, 62.90340042114258, 138.2519073486328, -0.7250484, 0.94557226, 0.21477222
1002, 3568266094, -52.32951354980469, 63.7777099609375, 137.59205627441406, -0.5239574, 1.5329549, 0.78921604
1006, 3568332762, -51.50794982910156, 62.453609466552734, 136.3642120361328, -0.35800624, 4.6315546, 3.669015
1009, 3568382763, -46.20615005493164, 57.03678512573242, 136.4976348876953, -2.1616223, 3.0335839, 6.194977
1015, 3568482765, -55.136871337890625, 32.1738166809082, 133.25604248046875, 1.4721459, 0.38667786, 3.675067
1018, 3568532766, -61.965579986572266, 15.317423820495605, 131.8520965576172, 0.8024626, -0.48431754, 2.8789558
1021, 3568582767, -65.23067474365234, -1.3058165311813354, 132.4102020263672, 1.0360172, -1.2514012, -1.5089846
1025, 3568649435, -70.02650451660156, -19.679506301879883, 133.91282653808594, 0.05121643, -0.052030716, -2.7250347
1031, 3568749437, -75.81886291503906, -37.5801887512207, 135.6112060546875, -0.6440362, -1.366149, -1.6113882
1034, 3568799438, -76.76164245605469, -43.261146545410156, 136.6730194091797, -2.4033267, -1.3545771, -2.0643358
1037, 3568849439, -78.8565673828125, -47.2083625793457, 139.41929626464844, -2.626108, -3.090471, -1.8575191
1040, 3568899440, -82.77579498291016, -49.46354675292969, 146.0832061767578, -1.2638688, -3.6315787, -2.4338632
1043, 3568949441, -89.03661346435547, -50.50935745239258, 155.82122802734375, -0.17960003, -2.489382, -2.5013409
1047, 3569016109, -98.9198989868164, -49.943382263183594, 170.47923278808594, 1.861613, -0.07140859, -2.1077857
1050, 3569066110, -104.5008316040039, -48.733829498291016, 179.88125610351562, 2.843537, 1.5299742, -1.1188402
1053, 3569116111, -107.85186767578125, -47.950592041015625, -173.6140594482422, 2.4474568, 2.7685819, 0.031977654
1056, 3569166112, -108.51722717285156, -48.35850143432617, -170.22451782226562, 2.1928704, 3.3494902, 1.2172489
1059, 3569216113, -107.2496566772461, -50.37113952636719, -170.186767578125, 1.7134337, 3.2567663, 1.1521463
1065, 3569316115, -98.74609375, -56.94255447387695, 179.2013702392578, 1.001546, 1.8937957, 0.123482704
1069, 3569382783, -87.69916534423828, -60.770591735839844, 164.5045166015625, 0.97101617, 1.182943, -0.5099392
1072, 3569432784, -76.67776489257812, -62.54243087768555, 149.30613708496094, 1.2462792, 0.35035872, -0.71555233
1075, 3569482785, -63.8416633605957, -62.72243881225586, 132.4912109375, 0.7341522, -0.38940138, -0.7872715
1078, 3569532786, -52.0581169128418, -61.10206604003906, 116.58709716796875, -0.38885778, -0.89984, -0.8210678
1081, 3569582787, -44.16451644897461, -58.12846374511719, 105.0003662109375, -1.7608737, -1.8805271, 0.14221191
1084, 3569632788, -40.1999397277832, -55.16366195678711, 98.94688415527344, -3.1252055, -1.8410776, 0.7681198
1088, 3569699456, -39.38853073120117, -52.953765869140625, 97.19989013671875, -2.509523, -1.6769685, 1.2687197
1091, 3569749457, -40.92361831665039, -53.059391021728516, 99.40144348144531, -1.544067, -1.1060114, 1.1176567
1094, 3569799458, -43.858131408691406, -54.18168640136719, 103.44908142089844, -1.1224195, -0.72391754, 0.66495323
1097, 3569849459, -48.06501007080078, -55.74748611450195, 109.1659164428711, -0.7577125, -0.7565574, 0.1467228
1100, 3569899460, -54.112815856933594, -57.290653228759766, 117.08150482177734, -0.56802756, -0.8254103, -0.51368713
1103, 3569949461, -62.69994354248047, -58.147579193115234, 127.95018005371094, 0.118417166, -0.70681643, -0.7067547
1106, 3569999462, -72.9022445678711, -57.78654861450195, 140.5827178955078, 0.3933305, -0.39187375, -0.81666374
1113, 3570116131, -94.00284576416016, -51.879337310791016, 168.04261779785156, 0.5129663, 0.77407783, -0.31454468
1116, 3570166132, -99.92281341552734, -48.11914825439453, 176.3404998779297, 1.0163217, 1.1802906, 0.24169159
1119, 3570216133, -104.02919006347656, -45.10989761352539, -178.19635009765625, 1.6448406, 1.4581053, 0.9588795
1122, 3570266134, -105.7360610961914, -43.57188034057617, -175.26522827148438, 1.8903542, 1.8643203, 1.2524576
1125, 3570316135, -105.44471740722656, -44.06196212768555, -175.02505493164062, 1.7354842, 2.2402563, 0.97203636
1132, 3570432804, -97.71521759033203, -50.12714385986328, 175.1796875, 1.3714839, 1.423384, -0.09109688
1135, 3570482805, -91.66752624511719, -53.0073356628418, 167.07077026367188, 1.4564736, 0.8197732, -0.3073492
1141, 3570582807, -76.12400817871094, -56.792049407958984, 145.77435302734375, 0.50372154, -0.44888598, -0.7158575
1144, 3570632808, -68.86865997314453, -56.91363525390625, 135.79852294921875, -1.0015416, -0.76626825, -0.71588135
1147, 3570682809, -64.37683868408203, -55.97704315185547, 128.54776000976562, -1.3647634, -1.4437932, -0.8547449
1150, 3570732810, -63.60195541381836, -54.26142501831055, 125.80562591552734, -1.7227426, -1.502598, -0.8649845
1154, 3570799478, -66.52810668945312, -51.19816589355469, 127.18769836425781, -1.1379812, -1.2962912, -0.70835686
1157, 3570849479, -69.43291473388672, -48.599769592285156, 130.02682495117188, -0.6710965, -0.4494649, -0.3663969
1160, 3570899480, -71.52257537841797, -46.09556579589844, 132.2350616455078, -0.05572133, -0.0926782, 0.16834354
1163, 3570949481, -72.2473373413086, -43.78073501586914, 133.6275177001953, -0.15695505, 0.13254112, 0.50706387
1169, 3571049483, -71.65572357177734, -39.38837814331055, 135.36228942871094, 0.029964147, -0.13018233, 0.10107994
1173, 3571116151, -71.01557922363281, -36.33447265625, 136.73191833496094, 0.0028734826, 0.092493184, 0.34748936
1176, 3571166152, -70.66868591308594, -34.14866638183594, 137.8336181640625, -0.070252135, 0.4933525, 0.764699
1179, 3571216153, -70.6064682006836, -32.36610794067383, 138.85276794433594, 0.115248196, 0.6184072, 1.1857214
1182, 3571266154, -70.4446029663086, -31.055631637573242, 139.86367797851562, 0.2902432, 1.082606, 1.333785
1185, 3571316155, -70.98757934570312, -30.422548294067383, 140.67347717285156, 0.46000084, 1.0032805, 1.4348993
1188, 3571366156, -71.60578155517578, -30.292804718017578, 141.2412872314453, 0.5680535, 0.7958393, 1.3884592
1191, 3571416157, -72.48851013183594, -30.54572296142578, 141.72909545898438, 0.63207495, 0.78381795, 0.9330759
1195, 3571482825, -73.8471908569336, -31.24983024597168, 142.1385040283203, 0.3656131, -0.13922532, 0.40207767
1198, 3571532826, -75.1509780883789, -32.175045013427734, 142.45855712890625, 0.39049008, -0.10593114, 0.7684841
1204, 3571632828, -77.7817153930664, -34.80048370361328, 143.34291076660156, 0.24823773, -0.039526183, 0.61529255
1207, 3571682829, -78.98074340820312, -36.54972457885742, 144.17282104492188, 0.5813266, -0.15890443, 0.9565792
1210, 3571732830, -79.59695434570312, -38.957855224609375, 145.31565856933594, 0.5484845, -0.2730104, 1.3568945
1213, 3571782831, -80.78028106689453, -42.23106002807617, 146.63076782226562, 0.10742524, -0.087908484, 0.4671316
1217, 3571849499, -82.59957122802734, -47.56036376953125, 149.27291870117188, 0.7271033, -0.2096152, 0.6481581
1220, 3571899500, -83.0616683959961, -51.4277458190918, 151.5343780517578, -0.5517683, 0.12614752, -0.6798744
1223, 3571949501, -85.5533447265625, -55.24228286743164, 154.35841369628906, -0.08307775, -0.03663126, -0.45913696
1229, 3572049503, -91.70246124267578, -61.55621337890625, 162.08169555664062, 0.2022381, -0.17500193, -0.2833519
1232, 3572099504, -96.64974975585938, -64.45430755615234, 167.84228515625, 0.032461904, 0.0855963, -0.31157398
1236, 3572166172, -105.65785217285156, -68.19104766845703, 178.3054962158203, 0.432036, -0.3772788, -0.20870972
1248, 3572366176, -127.29505920410156, -74.0387191772461, -149.7692108154297, -3.029242, 0.16281265, -0.43728542
1251, 3572416177, -116.07530975341797, -72.86519622802734, -154.99600219726562, -1.565706, 0.6938723, -1.1692677
1254, 3572466178, -102.2747573852539, -70.22096252441406, -164.06834411621094, -2.731977, -0.47697374, -1.8766885
1258, 3572532846, -85.72095489501953, -63.53166961669922, -176.8350067138672, 0.35755077, 1.7060368, -1.5005693
1261, 3572582847, -75.76891326904297, -55.299102783203125, 175.824951171875, 0.051318686, -0.36593133, -4.4919157
1264, 3572632848, -68.64945220947266, -44.66846466064453, 170.0144805908203, 1.2693889, 1.2252126, -3.6059847
1267, 3572682849, -66.006103515625, -32.732322692871094, 167.71206665039062, 5.0775905, -1.2874938, -1.355237
1270, 3572732850, -64.3555679321289, -23.11168670654297, 166.10391235351562, 1.8318504, 2.388627, 0.17786407
1273, 3572782851, -62.17580795288086, -14.57827377319336, 164.92086791992188, 2.7123342, -2.156165, 2.9724255
1277, 3572849519, -60.398094177246094, -7.674576282501221, 163.3890380859375, 2.0313604, 0.33414552, 4.7480326
1280, 3572899520, -58.596256256103516, -5.7457380294799805, 162.80908203125, -0.12793088, 0.3269133, 3.4875116
1283, 3572949521, -57.36433410644531, -5.302313327789307, 162.35092163085938, 0.4464046, 1.1482788, 2.488287
1286, 3572999522, -56.75531768798828, -5.71142053604126, 162.06727600097656, 0.3625373, 0.71627206, 1.1568232
1289, 3573049523, -56.88991928100586, -6.298183917999268, 161.7717742919922, 0.7114117, 0.7600646, 0.32531452
1292, 3573099524, -56.783870697021484, -6.862063407897949, 161.4267578125, 0.34717473, -0.30567732, -0.55831814
1295, 3573149525, -56.582000732421875, -7.369378089904785, 160.873779296875, 0.7831109, 0.77903587, -0.015360832
1299, 3573216193, -54.14502716064453, -8.499781608581543, 159.96299743652344, 0.44952154, 0.442668, 0.8612318
1302, 3573266194, -50.16114807128906, -10.572352409362793, 159.06301879882812, 1.1358362, 0.8556171, 2.9416666
1305, 3573316195, -45.14686965942383, -14.489189147949219, 158.431640625, 0.40948373, -0.4575946, 0.6628275
1314, 3573466198, -43.70077896118164, -34.61509704589844, 155.50901794433594, 1.512852, -0.87907934, -0.59187794
1317, 3573516199, -43.15284729003906, -43.03439712524414, 154.85763549804688, 0.61627996, 0.08837367, -1.0039978
1321, 3573582867, -42.568641662597656, -52.52296829223633, 152.37875366210938, -0.58478945, 0.5831598, -1.6751518
1324, 3573632868, -43.686927795410156, -57.80409622192383, 151.42652893066406, 0.30902207, -0.1658114, -1.0230742
1327, 3573682869, -44.80696105957031, -61.04711151123047, 151.00430297851562, -1.1417521, 1.8648567, -1.4450331
1330, 3573732870, -47.10400390625, -62.16331481933594, 149.7293243408203, -1.6205399, 0.42549032, -0.46901894
1333, 3573782871, -48.145294189453125, -61.336021423339844, 149.2764892578125, -0.6713234, 0.5529274, -0.1785202
1336, 3573832872, -47.83163070678711, -59.61992263793945, 149.55430603027344, -1.4895171, 0.43324232, -0.41255856
1339, 3573882873, -47.837608337402344, -57.33856964111328, 149.47946166992188, -0.27780324, -0.1150771, -0.67637634
1343, 3573949541, -46.52207946777344, -52.938777923583984, 149.4496612548828, -0.76298404, 0.8517416, -0.9397516
1349, 3574049543, -44.40949249267578, -43.53926086425781, 148.18975830078125, 0.7220471, 0.24176636, 0.28515148
1352, 3574099544, -43.017208099365234, -38.617488861083984, 148.29429626464844, 0.77464885, -0.61523384, 1.2506618
1358, 3574199546, -45.86513900756836, -32.49381637573242, 149.67156982421875, 2.6289818, -2.053043, 3.8405704
1362, 3574266214, -50.482975006103516, -36.10999298095703, 151.1938018798828, 1.1317279, 0.24566466, 1.8235731
1365, 3574316215, -54.41065216064453, -43.71501922607422, 152.04978942871094, 1.2430098, -1.4214585, 2.1137085
1368, 3574366216, -58.05586242675781, -54.00373077392578, 154.30210876464844, 0.08572571, 1.350727, -0.58490944
1371, 3574416217, -63.50214767456055, -64.55196380615234, 158.82351684570312, -2.9498463, 1.0089619, -1.538701
1374, 3574466218, -72.49356842041016, -72.79427337646484, 165.5637664794922, -1.3643503, 1.7058252, -0.6044588
1377, 3574516219, -81.11778259277344, -76.64533233642578, 175.17221069335938, -2.493475, 0.76583314, -1.2638063
1380, 3574566220, -82.9515151977539, -76.7498550415039, 178.491455078125, -1.9209007, 0.4972763, -1.4968748
1390, 3574732890, -57.10662078857422, -59.66162109375, 166.48922729492188, -2.2539427, 2.1589851, -1.0390921
1393, 3574782891, -52.07159423828125, -48.951534271240234, 162.56698608398438, -3.9843593, 0.9100406, -2.3238397
1396, 3574832892, -49.60622787475586, -33.27667236328125, 162.59835815429688, -2.963199, -0.534246, -5.646754
1399, 3574882893, -53.63791275024414, -13.128915786743164, 162.8802947998047, 3.957841, -3.708247, -7.87054
1402, 3574932894, -67.6074447631836, 3.4704430103302, 161.81549072265625, 11.143996, -3.9711962, 3.5497074
1406, 3574999562, -68.22205352783203, 14.178555488586426, 161.0626220703125, 3.7873247, -3.6187148, 11.357079
1409, 3575049563, -60.76149368286133, 14.79694938659668, 161.30282592773438, -1.2144932, 2.7385955, 2.7880373
1412, 3575099564, -58.10695266723633, 15.045351028442383, 161.54856872558594, 0.16578135, 1.105326, 1.0134325
1415, 3575149565, -57.10835266113281, 15.048337936401367, 161.0858917236328, -0.004922761, 2.008753, 1.8215094
1418, 3575199566, -55.81015396118164, 14.76070499420166, 160.75982666015625, 0.26015553, 0.14431062, 0.7567034
1425, 3575316235, -56.11511993408203, 13.428759574890137, 160.22996520996094, -0.54749835, -0.1530203, -0.3234892
1431, 3575416237, -56.27772521972656, 12.877591133117676, 159.68548583984375, 0.04882685, -0.009062759, -0.12887669
1434, 3575466238, -56.49333572387695, 12.728629112243652, 159.5948028564453, 0.1672441, 0.2211973, 0.02779293
1437, 3575516239, -57.0322265625, 12.071540832519531, 159.4926300048828, 0.961319, 0.570401, 2.4243946
1440, 3575566240, -56.20439910888672, 9.78628158569336, 159.419921875, 1.4359235, 0.31723058, 3.0735064
1443, 3575616241, -54.820003509521484, 5.278135776519775, 159.44979858398438, 1.6242148, 0.22400323, 2.6752539
1447, 3575682909, -53.91079330444336, -3.8864567279815674, 159.82275390625, 2.6572676, -0.9867077, 1.813097
1450, 3575732910, -53.79157638549805, -13.518911361694336, 160.3280029296875, 1.8078424, -0.17201003, 0.9204731
1453, 3575782911, -52.90009689331055, -24.22243309020996, 160.5504913330078, 0.6491977, -0.19350153, -1.2368345
1456, 3575832912, -53.26398849487305, -34.52964401245117, 161.25802612304688, 0.5970441, -0.34364665, -1.4720087
1462, 3575932914, -58.53794479370117, -54.38984298706055, 165.901611328125, 0.99919766, 0.058813803, -1.6756601
1466, 3575999582, -65.88519287109375, -66.83917999267578, 172.0592498779297, -2.594484, 0.17476769, -1.9353261
1469, 3576049583, -76.04147338867188, -73.86723327636719, 179.06492614746094, -2.1171446, 1.7283164, -1.1893053
1472, 3576099584, -83.51036071777344, -77.5643081665039, -174.84906005859375, -5.035889, 1.4299438, -0.577054
1475, 3576149585, -77.79505157470703, -76.87740325927734, 178.31723022460938, -4.818158, 1.9399103, -0.37022972
1478, 3576199586, -62.98120880126953, -70.31511688232422, 165.67140197753906, -5.6940446, 2.1550605, -2.0189152
1481, 3576249587, -54.29758071899414, -58.318302154541016, 158.60816955566406, -3.8265722, 1.8613853, -3.5540276
1484, 3576299588, -51.62653350830078, -43.05611801147461, 157.05014038085938, -0.51259285, -1.3399054, -3.0432582
1488, 3576366256, -57.045902252197266, -20.55008888244629, 159.94696044921875, 3.1279294, -5.3055863, -3.1726818
1494, 3576466258, -58.52170181274414, -1.0081841945648193, 162.56729125976562, 5.2039185, 4.2719235, 8.829498
1500, 3576566260, -53.49446487426758, -1.1313650608062744, 161.68617248535156, -0.86052245, 1.3538933, 0.66072655
1503, 3576616261, -53.258941650390625, -1.084411859512329, 161.3546905517578, 0.060138676, 0.8475536, 1.391139
1506, 3576666262, -53.45142364501953, -1.2457116842269897, 161.07887268066406, 0.64914936, 0.5057523, 0.7208214
1513, 3576782931, -53.908905029296875, -3.538083553314209, 160.52294921875, 1.4206753, 1.0067462, 2.8603191
1516, 3576832932, -52.957523345947266, -7.5059099197387695, 159.91253662109375, 3.3969204, -0.83065337, 3.2896461
1519, 3576882933, -51.396156311035156, -15.03290843963623, 159.91244506835938, 3.5614035, -2.0459323, 2.267702
1522, 3576932934, -51.9159049987793, -25.431468963623047, 160.82223510742188, 1.3907237, -2.0807831, -0.6057768
1525, 3576982935, -54.83189392089844, -37.0584716796875, 162.77139282226562, 1.5045301, 0.38637027, -0.41369343
1528, 3577032936, -58.29239273071289, -49.645755767822266, 166.49383544921875, 0.287689, -0.16911392, -2.563439
1535, 3577149605, -82.6738052368164, -71.45697021484375, -171.4462127685547, -5.0147786, 2.3918927, -1.2354136
1538, 3577199606, -85.15336608886719, -73.29608917236328, -167.56719970703125, -7.829151, 1.4265323, -1.5260143
1541, 3577249607, -71.87882995605469, -69.37509155273438, -177.5023193359375, -7.0812793, 2.7195568, -2.2410212
1544, 3577299608, -56.32524490356445, -57.80216979980469, 170.76158142089844, -7.8285227, 1.6538343, -5.67735
1547, 3577349609, -49.41102981567383, -39.364845275878906, 164.67459106445312, -3.782954, 0.035481285, -8.016755
1551, 3577416277, -58.783164978027344, -10.653244972229004, 162.41062927246094, 14.380659, -4.6201177, 0.621068
1554, 3577466278, -61.984718322753906, 6.7472124099731445, 162.1318817138672, 13.120554, 0.98638064, -1.4398775
1557, 3577516279, -66.70292663574219, 11.749028205871582, 160.83306884765625, 3.4721167, 0.7305651, 11.116079
1560, 3577566280, -60.06599426269531, 13.277105331420898, 160.92098999023438, -1.341949, 3.1401088, 3.8086452
1563, 3577616281, -60.34157180786133, 13.624284744262695, 160.15469360351562, -0.55460334, 1.4310709, 3.4873362
1569, 3577716283, -60.230159759521484, 11.23288631439209, 158.74131774902344, 1.1712015, -0.08816617, 1.5675621
1573, 3577782951, -59.77227020263672, 5.765589237213135, 159.05003356933594, 3.351883, -0.6185906, 3.562024
1576, 3577832952, -57.071998596191406, -1.5634739398956299, 160.0306854248047, 2.2866457, -0.7177621, 1.4283628
1579, 3577882953, -55.47890853881836, -10.902631759643555, 160.99488830566406, 1.7051266, -0.725525, 0.8511925
1582, 3577932954, -54.5415153503418, -21.12176513671875, 161.7611083984375, 1.7458035, -0.17131776, -0.2793808
1585, 3577982955, -54.0554313659668, -31.56028938293457, 162.84754943847656, 0.8753307, -0.61746347, -1.1007404
1588, 3578032956, -55.79240417480469, -42.59345626831055, 164.539306640625, 1.1981345, -0.7739356, -1.723319
1591, 3578082957, -58.12626266479492, -53.623504638671875, 167.4341583251953, -0.5863038, 0.021339731, -2.2997942
1595, 3578149625, -67.79891204833984, -67.79930877685547, 175.9814453125, -2.8188581, 0.18744244, -1.7977915
1598, 3578199626, -80.9127197265625, -76.4180679321289, -172.45030212402344, -4.8872514, 0.7346719, -1.9831228
1604, 3578299628, -67.98458099365234, -74.53296661376953, 174.18856811523438, -6.624098, 4.278193, -4.482898
1607, 3578349629, -56.61573791503906, -58.771331787109375, 165.67787170410156, -3.424352, -1.8990917, -9.130172
1610, 3578399630, -55.45712661743164, -39.50564193725586, 164.07411193847656, 5.547585, 0.46033773, -1.7981853
1614, 3578466298, -54.49391555786133, -15.468988418579102, 163.7608184814453, 5.5781198, -4.3860545, -0.87034607
1617, 3578516299, -58.80411148071289, -5.483860015869141, 164.22714233398438, 6.1724343, 2.68292, 13.791573
1620, 3578566300, -55.48521423339844, -3.3645901679992676, 163.4661407470703, 0.7105905, 0.267626, 5.7130556
1623, 3578616301, -53.650760650634766, -4.906506061553955, 162.73997497558594, 0.30924594, 1.4525337, 3.5325766
1626, 3578666302, -53.429439544677734, -8.225398063659668, 161.75482177734375, 1.5128765, 1.4027705, 3.0961409
1629, 3578716303, -52.90271759033203, -13.364953994750977, 161.1280059814453, 3.1535552, -2.2516012, 2.6553373
1632, 3578766304, -53.45003128051758, -22.034286499023438, 161.06625366210938, 3.749543, -0.6424545, 2.4158497
1636, 3578832972, -54.3848876953125, -37.23830795288086, 162.96142578125, 1.2958795, -1.7656026, -1.9169426
1639, 3578882973, -58.760475158691406, -49.77042007446289, 166.92466735839844, 0.21848346, -0.9590608, -2.8690472
1642, 3578932974, -68.30730438232422, -61.912235260009766, 174.68362426757812, -5.1865215, -0.45021006, -3.370257
1645, 3578982975, -85.21763610839844, -72.33817291259766, -172.1855010986328, 0.6130582, 2.0183957, -2.0250306
1648, 3579032976, -104.94971466064453, -77.54557800292969, -151.4377899169922, -7.584238, 0.6741327, -1.1684132
1651, 3579082977, -102.47052001953125, -77.82981872558594, -152.54124450683594, -7.1947813, 2.4913378, -0.64149666
1655, 3579149645, -66.70502471923828, -66.74256896972656, 178.32894897460938, -6.693168, 3.0296962, -4.661544
1658, 3579199646, -55.134002685546875, -49.71756362915039, 168.13818359375, -3.191595, 0.8237118, -8.241709
1661, 3579249647, -52.70271301269531, -29.322050094604492, 163.9290008544922, 3.1272461, -0.5779622, -5.3790045
1667, 3579349649, -55.88973617553711, 3.058764934539795, 161.41429138183594, 7.617199, -2.2934704, 7.3506775
1670, 3579399650, -54.62161636352539, 6.788224697113037, 160.28500366210938, 2.3205395, 1.3199812, 7.753435
1673, 3579449651, -51.1995735168457, 6.560624599456787, 159.876708984375, 0.4490029, 1.4081434, 4.584202
1680, 3579566320, -51.5698356628418, -3.6514201164245605, 160.05477905273438, 4.7066936, -3.0887427, 5.752136
1683, 3579616321, -51.611759185791016, -15.899691581726074, 161.3133544921875, 5.2150083, -1.8338333, 2.5524979
1686, 3579666322, -51.65094757080078, -31.573505401611328, 163.568603515625, 0.24227558, -0.70614195, -2.3854694
1692, 3579766324, -63.328311920166016, -56.72414016723633, 169.64788818359375, -7.511042, 1.8234459, -4.214074
1695, 3579816325, -69.71215057373047, -61.122188568115234, 171.11219787597656, -6.685605, 4.028832, -3.0558681
1699, 3579882993, -71.665283203125, -54.54068374633789, 166.83389282226562, -4.952153, 1.2390109, -4.832745
1702, 3579932994, -73.93772888183594, -42.48200988769531, 163.0049591064453, -2.7565181, 1.1875994, -5.3512974
1708, 3580032996, -82.80066680908203, -8.421480178833008, 161.67222595214844, 5.1778235, -1.6364291, -1.8058872
1711, 3580082997, -88.06558227539062, 7.0894060134887695, 160.14566040039062, 8.685016, -3.5980177, 2.2576284
1714, 3580132998, -91.93696594238281, 14.616896629333496, 157.3091278076172, 3.3950808, 0.4559086, 8.984499
1717, 3580182999, -89.00888061523438, 16.519346237182617, 156.10227966308594, 1.5128996, 0.62651914, 2.6147814
1721, 3580249667, -88.49898529052734, 16.524232864379883, 155.60496520996094, -0.8614938, 1.2373263, 2.6785555
1724, 3580299668, -87.63508605957031, 16.023929595947266, 155.0979766845703, -0.43431038, 0.37138495, 0.7067375
1727, 3580349669, -87.41932678222656, 15.111581802368164, 154.8802947998047, 0.43832752, -0.119453594, 0.33054638
1730, 3580399670, -87.50801086425781, 14.007096290588379, 154.9996795654297, 0.17811935, 0.022677464, 0.46988297
1733, 3580449671, -86.81026458740234, 12.342018127441406, 155.3679962158203, 1.416561, 0.4759572, 2.9133348
1736, 3580499672, -82.43903350830078, 7.798194408416748, 156.81060791015625, 3.8200228, -1.008621, 5.0578556
1743, 3580616341, -63.923912048339844, -21.168664932250977, 162.24864196777344, 1.6768538, -2.136477, -1.3576574
1746, 3580666342, -54.75648880004883, -36.12726593017578, 164.8822479248047, -2.7156835, 1.2065872, -5.9732604
1749, 3580716343, -52.887542724609375, -46.96595001220703, 166.86007690429688, -7.8361425, 1.7799838, -6.212578
1752, 3580766344, -53.66172790527344, -50.475067138671875, 166.8748779296875, -8.791804, 2.6751328, -4.5984387
1755, 3580816345, -52.94688415527344, -45.28783416748047, 166.37115478515625, -6.7243843, 1.6285222, -4.287009
1762, 3580933014, -54.57058334350586, -14.533738136291504, 160.7725067138672, -0.77135956, -2.7081716, -0.95310307
1765, 3580983015, -58.83633804321289, 0.7468494176864624, 160.42039489746094, 4.5695653, 1.8566041, -0.49980927
1768, 3581033016, -63.09585952758789, 12.951055526733398, 158.3385009765625, 8.8906765, -4.615361, 6.0978413
1771, 3581083017, -62.897613525390625, 15.93242073059082, 156.0318145751953, 3.2367697, 2.4488034, 7.6069355
1774, 3581133018, -58.36874771118164, 14.543802261352539, 156.3217010498047, 1.2718526, 0.29604644, 3.9931831
1780, 3581233020, -53.96432876586914, -0.04376017674803734, 159.30055236816406, 3.5116475, -1.3673053, 5.4255
1784, 3581299688, -55.9531364440918, -19.552560806274414, 161.5311279296875, 3.0296512, -1.37079, -1.0208845
1787, 3581349689, -58.59440994262695, -35.053035736083984, 164.77798461914062, 0.47884482, 0.14215286, -3.6142426
1793, 3581449691, -70.934814453125, -57.633689880371094, -179.19923400878906, -3.622139, 0.034301862, -4.7297544
1796, 3581499692, -85.15234375, -64.30831146240234, -168.29782104492188, -1.5260984, 2.129304, -1.9387822
1799, 3581549693, -98.81838989257812, -67.75175476074219, -155.40354919433594, -2.3407524, 1.5232723, -0.39531517
1803, 3581616361, -110.85706329345703, -69.58609008789062, -145.35623168945312, -2.717858, 2.0160804, 0.41103458
1806, 3581666362, -111.87496948242188, -70.3633804321289, -147.11546325683594, -6.6932406, 0.67345077, 0.013957977
1809, 3581716363, -101.4228744506836, -68.81950378417969, -158.3953857421875, -1.8997815, 2.0045202, 0.99845695
1812, 3581766364, -86.14888000488281, -64.30474090576172, -171.28079223632812, -4.3247604, 1.3624438, 0.032179832
1815, 3581816365, -72.42111206054688, -54.42657470703125, 177.41954040527344, -4.498301, 2.434264, -2.8448415
1818, 3581866366, -66.87787628173828, -40.37720489501953, 169.958984375, -2.5964448, -0.40136495, -5.8804145
1821, 3581916367, -72.82366180419922, -25.804166793823242, 163.9239959716797, 7.762948, -4.937928, -2.7735672
1825, 3581983035, -82.95445251464844, -13.255485534667969, 161.96656799316406, 6.9567327, 0.14484258, 6.2307167
1828, 3582033036, -83.42355346679688, -11.18237590789795, 161.67808532714844, 3.7495482, -0.7709355, 4.9243345
1831, 3582083037, -82.85011291503906, -13.187617301940918, 161.69729614257812, 1.6108778, 0.466676, 3.557622
1834, 3582133038, -81.05775451660156, -16.104169845581055, 162.34906005859375, 1.9812984, 1.516824, 2.2588081
1837, 3582183039, -78.33261108398438, -21.48583221435547, 163.01866149902344, 5.0414996, 0.54222614, 4.6549997
1840, 3582233040, -71.69892883300781, -30.050920486450195, 165.3616180419922, 3.1784816, -2.4398606, 0.5498438
1847, 3582349709, -62.565284729003906, -54.4094352722168, 176.3017120361328, -4.8462543, -1.1304356, -3.7967825
1850, 3582399710, -70.29141998291016, -62.81071472167969, 179.77554321289062, -5.504899, 2.0736637, -2.007246
1853, 3582449711, -76.4090576171875, -67.22968292236328, -178.09368896484375, -2.5966399, 2.0582805, -0.63724995
1856, 3582499712, -74.25748443603516, -65.26624298095703, -178.461181640625, -5.7165504, 2.4888682, -1.8729954
1859, 3582549713, -68.2484359741211, -59.06380844116211, 174.60569763183594, -1.5398546, 1.6699722, -2.6004758
1862, 3582599714, -60.844364166259766, -49.526546478271484, 169.1397705078125, -3.1951256, 1.8279067, -2.2014537
1866, 3582666382, -52.68410873413086, -32.608177185058594, 164.16519165039062, -2.070053, 0.695511, -2.269239
1869, 3582716383, -52.04481506347656, -17.656455993652344, 161.44027709960938, -0.22354157, 0.1503769, -0.94304466
1872, 3582766384, -53.89311599731445, -1.6092218160629272, 160.4820098876953, 3.4102304, -2.3454163, -1.0467024
1875, 3582816385, -61.51398849487305, 11.170863151550293, 157.4896697998047, 9.179028, -3.4093857, 3.7011175
1881, 3582916387, -62.672142028808594, 17.784828186035156, 155.3077392578125, 0.7992934, 0.9445035, 3.638217
1884, 3582966388, -60.66798782348633, 16.72346305847168, 156.11875915527344, 0.116027646, 1.325565, 1.801753
1888, 3583033056, -59.256370544433594, 14.467427253723145, 156.32115173339844, -0.028948449, 0.80176014, 2.0001621
1891, 3583083057, -58.276123046875, 11.026670455932617, 156.96603393554688, 1.7010686, -1.5593497, 3.5655298
1894, 3583133058, -58.14601516723633, 3.474642753601074, 158.64849853515625, 3.5948577, -3.5246847, 3.073248
1897, 3583183059, -59.140769958496094, -8.603261947631836, 160.29542541503906, 3.1367817, -0.67924964, 2.4360027
1903, 3583283061, -57.681861877441406, -37.1076545715332, 166.12319946289062, -0.28273612, 1.4681593, -3.4914222
1906, 3583333062, -60.747859954833984, -49.32356643676758, 171.20616149902344, -1.5806494, 0.825945, -4.2376475
1910, 3583399730, -71.57540893554688, -61.39799118041992, -178.1991729736328, -2.982421, 2.4623742, -2.0275126
1913, 3583449731, -78.688720703125, -65.54814910888672, -170.03024291992188, -6.207933, 0.55265814, -1.7599726
1919, 3583549733, -72.21881103515625, -63.410499572753906, -173.7539825439453, -2.916464, 0.41859248, -0.23626614
1922, 3583599734, -63.37630081176758, -58.47861099243164, 179.68833923339844, -3.8290174, 0.66315323, -1.1441422
1925, 3583649735, -55.419010162353516, -50.65629577636719, 174.1200714111328, -4.4539905, 2.4888833, -1.3793116
1929, 3583716403, -48.13428497314453, -32.09115219116211, 168.28421020507812, -7.4237065, 1.008146, -5.4192734
1932, 3583766404, -54.75418472290039, -12.580629348754883, 164.57447814941406, 4.935399, -1.1544888, -3.5938745
1935, 3583816405, -62.2214469909668, 4.201296806335449, 163.08621215820312, 20.165834, -8.525293, 7.6298885
1938, 3583866406, -61.804203033447266, 8.395819664001465, 161.97976684570312, 3.2677755, 0.94121194, 6.7937794
1941, 3583916407, -57.925994873046875, 8.697021484375, 161.7499237060547, -0.9293357, 0.7328859, 1.0413656
1944, 3583966408, -58.27278518676758, 9.033686637878418, 161.17138671875, 0.23532332, 2.1650212, 2.5960112
1947, 3584016409, -57.444732666015625, 8.92481803894043, 160.5787811279297, 0.7473944, 0.67281085, 1.6324558
1954, 3584133078, -58.27656173706055, 1.2001169919967651, 160.424072265625, 5.8027873, -2.8227868, 5.675538
1957, 3584183079, -57.5435791015625, -10.311331748962402, 162.3130340576172, 4.760152, -2.2061706, 3.4974203
1960, 3584233080, -57.275691986083984, -26.206680297851562, 164.5125732421875, 1.8626562, -1.2884899, -0.663455
1963, 3584283081, -59.573524475097656, -42.59018325805664, 169.884765625, -0.35324246, 0.03781395, -2.948677
1966, 3584333082, -67.39134979248047, -56.832881927490234, -179.36073303222656, -4.161057, -0.1889493, -6.1115103
1969, 3584383083, -88.16753387451172, -66.83417510986328, -162.1977996826172, -8.753517, 2.5730832, -3.799038
1973, 3584449751, -101.64363861083984, -69.88624572753906, -155.39456176757812, -5.381527, 3.128232, -3.189598
1976, 3584499752, -85.5699462890625, -63.240394592285156, -172.14813232421875, -8.948203, 2.7734292, -6.6307907
1979, 3584549753, -73.56048583984375, -50.43174743652344, 170.51817321777344, -3.1653411, 3.155092, -4.6531405
1982, 3584599754, -73.29696655273438, -33.3164176940918, 160.47543334960938, -2.2898378, 1.554677, -4.7664075
1985, 3584649755, -79.87370300292969, -15.059164047241211, 155.33128356933594, 6.388603, -3.0545323, 2.8632927
1988, 3584699756, -83.74494171142578, -0.011441421695053577, 153.7675323486328, 6.831079, -3.0763834, 2.5195436
1992, 3584766424, -86.29424285888672, 7.9748735427856445, 151.15452575683594, 3.364658, -1.6395962, 6.0869465
1998, 3584866426, -85.59044647216797, 8.077126502990723, 151.6348419189453, -0.55298525, 1.221169, 2.2533789
2001, 3584916427, -84.57565307617188, 7.580796241760254, 151.82664489746094, 0.030440118, 1.2538769, 1.5854483
2004, 3584966428, -83.04161834716797, 5.06618595123291, 152.0782470703125, 3.7316935, -0.5189789, 5.6494427
2010, 3585066430, -71.86483001708984, -14.069561958312988, 158.11398315429688, 4.3023705, -4.160619, -1.711895
2014, 3585133098, -67.24384307861328, -34.00449752807617, 164.7968292236328, -1.016994, 1.4348406, -4.1823096
2017, 3585183099, -71.55147552490234, -48.89287567138672, 171.22369384765625, -3.164621, 0.34293866, -4.1505513
2023, 3585283101, -93.40605163574219, -67.60401153564453, -162.8035888671875, -6.7551937, 4.6952596, -0.511405
2026, 3585333102, -87.66510772705078, -68.02656555175781, -165.85235595703125, -10.734992, 2.8230298, -1.6141949
2029, 3585383103, -71.29415130615234, -60.871089935302734, 177.90469360351562, -2.5542412, 3.2646787, -2.645936
2032, 3585433104, -55.60970687866211, -47.030887603759766, 169.48934936523438, -4.7850423, 1.3363049, -3.7623715
2036, 3585499772, -49.2880859375, -22.823225021362305, 165.88465881347656, 1.8725445, -0.73956597, -4.8114347
2039, 3585549773, -55.22099685668945, -4.69508171081543, 163.33042907714844, 6.2579927, -3.2481234, -2.3577318
2042, 3585599774, -61.77531814575195, 8.258556365966797, 161.63873291015625, 9.227791, -1.807556, 8.598932
2045, 3585649775, -60.642578125, 12.901471138000488, 160.45521545410156, 3.6851668, 0.12725243, 5.599018
2048, 3585699776, -58.50357437133789, 12.61622142791748, 159.7402801513672, 0.77188855, 1.4574506, 3.5589151
2051, 3585749777, -55.954498291015625, 11.61800765991211, 159.59957885742188, 0.9905187, 1.6605835, 1.434
2058, 3585866446, -53.876163482666016, 5.648653507232666, 156.78504943847656, 0.4396068, 0.01376777, 1.733057
2061, 3585916447, -54.2864990234375, 1.5544496774673462, 155.6492462158203, 0.60197157, 0.3853306, 1.4991417
2064, 3585966448, -54.93577575683594, -3.750480890274048, 154.75204467773438, 1.5506535, -1.9926392, 2.114728
2067, 3586016449, -55.28260040283203, -10.971564292907715, 154.0070343017578, 1.6937908, -1.8720777, 1.8713694
2070, 3586066450, -56.28371047973633, -21.13477325439453, 154.59097290039062, 2.8688138, -5.7813706, 0.2615404
2073, 3586116451, -57.449527740478516, -34.989013671875, 156.90008544921875, 1.7995647, -0.5882914, -0.7326517
2077, 3586183119, -63.9995002746582, -53.5857048034668, 164.9174041748047, -5.577703, 0.16780704, -6.525676
2080, 3586233120, -76.25928497314453, -64.24542999267578, 174.13357543945312, -4.856588, 5.678724, -1.5021343
2083, 3586283121, -85.60670471191406, -66.16825103759766, -179.63674926757812, -6.4004974, 0.16171207, -2.875111
2086, 3586333122, -84.83631896972656, -59.05318832397461, -177.6945343017578, -3.4341955, 2.6172473, -1.4066124
2092, 3586433124, -97.08401489257812, -46.27789306640625, 170.4095001220703, 4.79266, 3.2968402, 6.3649063
2095, 3586483125, -95.19693756103516, -45.14255905151367, 165.04226684570312, 8.430781, -3.1935177, 6.6319904
2099, 3586549793, -73.97269439697266, -44.78248977661133, 164.18157958984375, -2.5264585, -1.6730644, -4.056997
2102, 3586599794, -72.962890625, -44.67216491699219, 163.37661743164062, -5.5231986, -1.1432703, -7.8618035
2105, 3586649795, -85.82855224609375, -43.06586837768555, 162.73583984375, 4.808683, -2.4992406, 1.4830465
2108, 3586699796, -93.30900573730469, -42.34793472290039, 165.82688903808594, 0.79892516, 0.6243153, 1.4724131
2114, 3586799798, -85.32369232177734, -47.16642761230469, 160.8050079345703, 2.6360128, 1.3799394, 2.0413036
2118, 3586866466, -68.14949035644531, -50.017242431640625, 156.74790954589844, -2.361094, 0.4732547, -2.0025477
2121, 3586916467, -66.62578582763672, -48.73876190185547, 159.2029266357422, -9.763533, -4.272871, -7.907255
2124, 3586966468, -81.98184967041016, -45.74580383300781, 161.3977508544922, 3.5647862, -0.68308485, 1.3983431
2130, 3587066470, -93.97260284423828, -43.410274505615234, 167.2449493408203, 2.2676342, 3.895082, 5.6348724
2133, 3587116471, -85.6439437866211, -45.98760986328125, 162.29730224609375, 2.4885612, 1.9594907, 1.8825264
2136, 3587166472, -73.2738037109375, -48.8378791809082, 155.44219970703125, 1.4232883, -1.44566, -0.45806217
2140, 3587233140, -62.539794921875, -50.5438232421875, 151.99636840820312, -7.3477006, -3.639661, -6.3464365
2143, 3587283141, -75.2931137084961, -49.00860595703125, 156.18177795410156, 1.7614456, -4.0782776, -1.3234224
2146, 3587333142, -87.2210693359375, -46.32151794433594, 166.21221923828125, 0.48330417, 0.5145386, -0.24211502
2149, 3587383143, -96.89846801757812, -43.37594985961914, 174.48309326171875, 0.87940377, 5.030258, 2.3103733
2152, 3587433144, -98.91678619384766, -43.63900375366211, 174.6484375, 0.8166174, 5.9177904, 4.6863155
2155, 3587483145, -89.22284698486328, -47.1671257019043, 165.86094665527344, 2.6500764, 3.3257205, 2.685113
2158, 3587533146, -72.02252197265625, -50.54568862915039, 151.88204956054688, 0.7666662, -1.4307926, -0.73659325
2162, 3587599814, -57.03545379638672, -51.98561096191406, 140.94041442871094, -7.4855304, -6.1878004, -4.0688868
2165, 3587649815, -68.38156127929688, -50.24822235107422, 148.11598205566406, -0.16018972, -7.196432, -2.307806
2168, 3587699816, -84.24478149414062, -45.72489929199219, 165.27735900878906, 0.81073457, 0.13594359, -1.934001
2171, 3587749817, -96.74517059326172, -39.73610305786133, 178.06491088867188, 0.5565637, 8.979687, 2.1462746
2174, 3587799818, -102.26924896240234, -39.21467590332031, 179.3699188232422, 2.2302976, 7.8139806, 7.018978
2177, 3587849819, -91.90766906738281, -43.43003845214844, 169.537353515625, 1.834467, 6.373225, 3.6570482
2181, 3587916487, -67.85637664794922, -48.471221923828125, 145.7034454345703, -4.5357924, -5.14583, -4.4589276
2184, 3587966488, -64.96952056884766, -47.505733489990234, 142.32119750976562, -3.6582942, -13.973677, -4.5577035
2187, 3588016489, -78.31419372558594, -44.45938491821289, 157.0428009033203, 0.7210374, -3.651953, -2.3600397
2193, 3588116491, -99.45148468017578, -39.50616455078125, 174.37850952148438, 5.8874564, 5.8776426, 6.764265
2196, 3588166492, -88.347900390625, -41.65568542480469, 168.27005004882812, 2.5945826, 4.5148582, 0.377676
2199, 3588216493, -73.29956817626953, -43.36539077758789, 158.83396911621094, -0.5373095, -2.809857, -4.590609
2203, 3588283161, -65.67303466796875, -40.862892150878906, 154.30564880371094, -2.5820806, -5.77009, -3.4204612
2206, 3588333162, -71.13406372070312, -35.68439865112305, 158.3436737060547, -1.5266824, -3.6525428, -2.0712605
2209, 3588383163, -80.40774536132812, -31.711042404174805, 163.1934356689453, 0.25154683, 2.026824, 4.807884
2212, 3588433164, -87.6111068725586, -31.49173927307129, 165.11373901367188, 0.28027317, 2.7927685, 5.06244
2215, 3588483165, -85.31141662597656, -33.71955871582031, 163.42308044433594, 2.3028402, 2.876036, 5.7676
2218, 3588533166, -74.6491470336914, -37.507076263427734, 158.61166381835938, 1.0780057, 0.92676413, -0.4218235
2221, 3588583167, -64.21234130859375, -41.59579849243164, 152.445068359375, 0.15207207, -0.92223495, -2.357089
2228, 3588699836, -70.19440460205078, -42.01268005371094, 159.08360290527344, 1.3972858, -0.46430847, -0.57977486
2231, 3588749837, -78.01728820800781, -39.64213943481445, 165.60714721679688, 0.08671934, 2.3538914, 0.9841318
2234, 3588799838, -85.08466339111328, -39.22651290893555, 167.88182067871094, 1.1597778, 3.0776432, 3.5846844
2237, 3588849839, -83.48753356933594, -40.55525207519531, 165.98133850097656, 1.0142146, 2.8632529, 3.5321236
2240, 3588899840, -74.9285888671875, -42.99910354614258, 160.41842651367188, 0.3656044, 0.81043863, 0.30384064
2243, 3588949841, -65.04462432861328, -45.55732727050781, 153.86691284179688, 0.6801913, -1.7080439, 0.13277912
2247, 3589016509, -56.10597610473633, -46.71851348876953, 153.8697509765625, -5.784401, -4.3147573, -5.3816447
2250, 3589066510, -67.49015808105469, -44.709693908691406, 159.3596954345703, 0.86724377, -3.0966883, -2.3569021
2253, 3589116511, -79.34017181396484, -42.09553527832031, 168.36611938476562, 1.8229103, 1.8523537, 1.5311594
2256, 3589166512, -89.19761657714844, -40.605857849121094, 174.30908203125, -0.33082724, 3.947894, 0.34042835
2262, 3589266514, -82.60247802734375, -43.41255187988281, 168.9539794921875, 0.84266573, 3.2260046, 0.3904915
2266, 3589333182, -68.0138931274414, -46.861759185791016, 155.9988250732422, 1.2333145, -1.4416838, 0.15816402
2269, 3589383183, -56.49038314819336, -47.5397834777832, 150.5045928955078, -1.8299143, -2.3822548, -1.9804149
2275, 3589483185, -67.7361068725586, -45.08748245239258, 157.05418395996094, 1.58943, -1.5648184, -1.6367912
2278, 3589533186, -78.19007110595703, -42.76183319091797, 164.4877471923828, 0.89399594, 2.530655, 1.0951557
2281, 3589583187, -87.4000244140625, -41.90449523925781, 168.25936889648438, -0.15823634, 2.722023, 1.2245789
2284, 3589633188, -87.59468078613281, -42.136940002441406, 167.6688995361328, 1.5884851, 3.6549032, 4.3990602
2288, 3589699856, -76.00608825683594, -44.74224090576172, 159.16583251953125, 1.5649033, 0.6766528, 0.37717342
2291, 3589749857, -66.29515075683594, -46.94489288330078, 151.95932006835938, 0.7379555, -2.504006, -0.016357422
2294, 3589799858, -58.69056701660156, -48.25968551635742, 150.78457641601562, -2.0447583, -3.1423285, -3.192305
2300, 3589899860, -75.52191162109375, -45.96744918823242, 161.8731689453125, 2.4607086, 0.27794182, 0.59829044
2303, 3589949861, -83.92988586425781, -44.21926498413086, 168.97576904296875, -0.8599104, 1.6446859, 0.55976963
2307, 3590016529, -90.74029541015625, -44.16111755371094, 172.9824676513672, 1.9903936, 3.6825144, 4.4540358
2310, 3590066530, -85.64934539794922, -46.14492416381836, 169.6935577392578, 0.59215397, 2.8478491, 1.6692057
2313, 3590116531, -76.47603607177734, -49.15341567993164, 161.65171813964844, 1.047855, 1.1412134, 0.836709
2319, 3590216533, -54.9869270324707, -51.90553665161133, 147.05496215820312, -2.3216197, -2.7754843, -2.4390702
2322, 3590266534, -55.41275405883789, -52.01890563964844, 147.30723571777344, -4.1063056, -4.336789, -3.151596
2325, 3590316535, -66.59823608398438, -50.43159866333008, 155.3440704345703, 0.7545575, -2.058122, -1.0844984
2329, 3590383203, -81.21428680419922, -46.99103927612305, 169.15223693847656, -0.23293582, 1.4278263, -0.5454407
2332, 3590433204, -92.04136657714844, -44.762020111083984, 176.09820556640625, 1.6635215, 4.0170984, 1.5242558
2335, 3590483205, -93.46177673339844, -44.21241760253906, 176.72361755371094, 0.9238928, 4.4814854, 2.5998993
2338, 3590533206, -86.76823425292969, -45.98365783691406, 170.5255126953125, 1.077813, 3.4718232, 2.2921429
2341, 3590583207, -74.75275421142578, -48.85544204711914, 159.03961181640625, 1.4165893, 0.002408799, 0.12660027
2344, 3590633208, -61.2722053527832, -50.45079040527344, 147.89427185058594, -0.4777502, -2.511336, -0.6985645
2347, 3590683209, -52.96229934692383, -51.27479934692383, 143.96432495117188, -3.8997333, -4.151452, -2.5904212
2351, 3590749877, -64.17848205566406, -49.34892272949219, 152.65982055664062, 0.1448498, -3.4949954, -1.8339825
2354, 3590799878, -76.67076873779297, -45.974613189697266, 164.92181396484375, 1.4066344, 1.0542575, -0.19518375
2357, 3590849879, -87.26402282714844, -42.21027755737305, 174.33950805664062, -0.96716523, 4.2685084, -0.6032772
2360, 3590899880, -93.66307067871094, -41.30376434326172, 176.66343688964844, 2.966545, 5.2457757, 6.0899506
2366, 3590999882, -76.53946685791016, -44.741172790527344, 161.34991455078125, 0.78388506, 1.0151927, 0.22103977
2370, 3591066550, -60.97116470336914, -45.406898498535156, 147.44407653808594, -1.4434131, -1.5336232, -0.88780785
2373, 3591116551, -54.94220733642578, -44.765380859375, 141.9642333984375, -3.2926078, -5.2766347, -3.0524516
2376, 3591166552, -60.196617126464844, -42.946502685546875, 145.11468505859375, 0.28008184, -6.2356663, -2.7726312
2379, 3591216553, -69.86985778808594, -40.42646026611328, 154.93545532226562, 0.42975932, -1.0926101, -0.74179363
2382, 3591266554, -78.26952362060547, -37.60938262939453, 164.697021484375, 0.51103467, 2.5404582, 0.4984274
2385, 3591316555, -87.19699096679688, -36.662174224853516, 170.5396270751953, 0.69923997, 3.5928717, 1.2211933
2388, 3591366556, -88.51726531982422, -36.61074447631836, 171.2555389404297, 1.2269185, 4.766509, 2.7684803
2392, 3591433224, -79.01883697509766, -36.70913314819336, 163.50503540039062, 0.13318087, 3.2522585, 0.124572754
2395, 3591483225, -70.78497314453125, -36.28750228881836, 153.93458557128906, 0.7090381, 0.55293554, -0.03841114
2401, 3591583227, -57.03730010986328, -33.32093811035156, 144.58831787109375, -1.2188673, -5.524625, -0.36528015
2404, 3591633228, -56.116905212402344, -31.792409896850586, 148.4224090576172, -3.089169, -5.623072, -4.533011
2407, 3591683229, -66.440673828125, -29.71333885192871, 154.9684295654297, 1.072229, -0.70656157, -1.0934935
2410, 3591733230, -73.8208999633789, -28.123424530029297, 160.73660278320312, 2.191821, 3.1102343, 0.5676613
2414, 3591799898, -77.23771667480469, -23.513145446777344, 165.64048767089844, -1.0931076, 8.025947, 1.9438944
2417, 3591849899, -74.78864288330078, -17.783891677856445, 163.31655883789062, -2.710165, 4.441164, 0.53212357
2420, 3591899900, -72.69094848632812, -11.49069881439209, 158.91326904296875, -0.24563034, 2.1471686, 3.9772148
2423, 3591949901, -64.6324462890625, -5.948183536529541, 154.985595703125, -0.13236661, -0.13048267, 0.63453865
2426, 3591999902, -56.13119888305664, -2.7243611812591553, 152.03045654296875, 0.74508387, -0.48823863, 1.7378845
2429, 3592049903, -48.706947326660156, -0.42241090536117554, 148.9860382080078, 0.20571719, -0.9158036, -0.8088074
2436, 3592166572, -43.35981369018555, 5.179845809936523, 141.6387939453125, 0.4927165, -0.98600304, 0.21997738
2439, 3592216573, -42.78982162475586, 7.041068077087402, 139.1035919189453, 1.0676975, -0.80006695, 0.7848072
2442, 3592266574, -41.80086898803711, 8.055889129638672, 137.35406494140625, 0.20470205, -1.5503176, -0.08072376
2445, 3592316575, -42.05274200439453, 8.369609832763672, 136.45558166503906, 0.4792036, -0.36849347, 0.6727247
2448, 3592366576, -41.89748764038086, 8.300080299377441, 136.24337768554688, -0.57502186, -0.5915303, -0.038570404
2451, 3592416577, -42.28839111328125, 8.090533256530762, 136.3336944580078, -0.31860197, 0.31467348, 0.3645649
2455, 3592483245, -42.821319580078125, 7.824960231781006, 136.6618194580078, -1.0039848, 0.11958402, 0.21484947
2458, 3592533246, -43.062252044677734, 7.759242534637451, 137.0548858642578, -1.0922382, 0.25135428, 0.32872963
2464, 3592633248, -43.18134307861328, 7.967432975769043, 138.16476440429688, -1.0131886, -1.1579435, 0.48573208
2467, 3592683249, -42.76298141479492, 8.01232624053955, 139.61473083496094, -0.6891749, -1.5851004, 0.016949654
2473, 3592783251, -43.85811233520508, 7.555899620056152, 144.59072875976562, 0.105230235, -0.5426346, 0.45545483
2477, 3592849919, -44.673622131347656, 7.182211399078369, 148.70501708984375, 0.13730289, 0.15070814, -0.10943985
2480, 3592899920, -46.43288040161133, 6.972383499145508, 151.9066162109375, 0.08862015, -0.89870703, 0.86666584
2483, 3592949921, -48.52241134643555, 6.131430625915527, 157.25083923339844, 2.113276, -4.876863, 1.8586206
2486, 3592999922, -48.46007537841797, 5.383957862854004, 162.80422973632812, -3.4886577, 22.095442, -12.856004
2489, 3593049923, -49.48143768310547, 4.704657077789307, 162.1153564453125, 3.7690158, 3.4147592, 2.3899765
2492, 3593099924, -48.372276306152344, 4.312725067138672, 162.53240966796875, 1.9575481, 1.6510599, -2.094874
2496, 3593166592, -49.71917724609375, 4.429748058319092, 162.15682983398438, 0.9043323, 0.428167, 1.1812391
2499, 3593216593, -50.229652404785156, 4.438422679901123, 161.7462158203125, 0.6144285, -0.60737133, -0.35844612
2502, 3593266594, -51.62379455566406, 4.471656799316406, 162.35084533691406, 1.0816656, -1.3200895, -0.43718433
2508, 3593366596, -67.1545639038086, 4.717297077178955, 163.45721435546875, -0.34724835, -0.7808382, 0.5090008
2511, 3593416597, -75.78839874267578, 4.434792518615723, 165.55352783203125, -0.924136, -2.1220615, -0.1556282
2514, 3593466598, -84.27445220947266, 3.193470001220703, 169.38450622558594, -1.8435376, 0.53914016, 2.8412762
2518, 3593533266, -85.82679748535156, 2.295048236846924, 174.688232421875, -2.5827243, 2.3364716, 3.7631435
2521, 3593583267, -80.42754364013672, 2.0944442749023438, 177.5084991455078, -0.46295327, 0.72545844, 0.66967297
2524, 3593633268, -74.54911804199219, 0.6592457890510559, 179.17193603515625, 0.4572553, 1.9988929, -0.4987049
2527, 3593683269, -67.688232421875, -1.170129656791687, 179.25514221191406, 1.3477675, 3.348851, -0.98625374
2530, 3593733270, -64.06941223144531, -2.4297592639923096, 177.56768798828125, 1.480468, 1.29745, -1.908864
2533, 3593783271, -63.03253936767578, -2.8793575763702393, 175.091552734375, 1.3784953, 1.4720825, -0.14637566
2540, 3593899940, -59.21292495727539, -1.9741003513336182, 169.39181518554688, -0.2598071, -0.55313647, -0.24158192
2543, 3593949941, -57.99211120605469, -1.1959223747253418, 167.0727081298828, -0.11052553, 0.25443053, 1.1815557
2546, 3593999942, -59.96984100341797, -0.32214075326919556, 167.1948699951172, -0.808168, -4.788778, -1.4411535
2549, 3594049943, -62.03407287597656, 0.18675093352794647, 168.57626342773438, 2.5398955, 3.7527943, 1.2005148
2552, 3594099944, -61.58295440673828, -1.1734991073608398, 169.80001831054688, 3.1775997, 1.235507, 0.98808
2555, 3594149945, -60.89995574951172, -3.498882532119751, 170.7195587158203, 3.334467, 1.6610181, -0.96829796
2559, 3594216613, -59.24738311767578, -5.236872673034668, 169.9467010498047, 0.52565813, 0.24382484, -2.0910888
2562, 3594266614, -59.457733154296875, -5.101675510406494, 168.60325622558594, -0.08819028, -1.8859994, -0.5138645
2565, 3594316615, -60.1206169128418, -4.783295154571533, 167.6884307861328, -1.5270928, -1.9890954, 1.0342274
2571, 3594416617, -59.66175079345703, -8.596495628356934, 169.6411895751953, -2.206693, -0.8212832, 2.104742
2581, 3594583287, -58.641902923583984, -21.71125602722168, 177.96963500976562, -2.234426, 1.5057975, -0.6542206
2584, 3594633288, -58.628910064697266, -23.293649673461914, 179.06553649902344, -2.037234, 1.0815405, -0.24537468
2587, 3594683289, -59.27281951904297, -23.860469818115234, 179.03562927246094, -0.94616926, 0.7568319, 0.20929623
2590, 3594733290, -59.43155288696289, -24.09656524658203, 178.61770629882812, -1.7177764, 0.32506046, 0.561532
2593, 3594783291, -59.5204963684082, -23.656639099121094, 177.165771484375, -4.305049, 1.288704, -0.39766502
2596, 3594833292, -59.949649810791016, -21.476367950439453, 174.3812713623047, -1.7978013, 0.72629774, -0.6994381
2599, 3594883293, -60.96389389038086, -17.095441818237305, 169.8338623046875, 0.11216654, 1.6803422, -1.2931852
2603, 3594949961, -61.23723602294922, -17.23969078063965, 168.35623168945312, -0.34889466, 1.4489814, -3.8694954
2606, 3594999962, -61.21729278564453, -16.084510803222656, 169.36863708496094, 2.920672, -0.49175885, -2.3031363
2609, 3595049963, -61.63884353637695, -15.656622886657715, 170.69705200195312, 4.2932334, 0.89556354, 1.4708385
2615, 3595149965, -62.35186004638672, -21.403060913085938, 172.6475372314453, -0.86146414, 0.6867641, -1.2889671
2618, 3595199966, -63.285282135009766, -23.245132446289062, 173.44815063476562, -1.2570521, 0.59312606, -1.2855072
2621, 3595249967, -63.99441909790039, -24.29955291748047, 174.0367889404297, -1.3986752, 0.15779547, -1.1968498
2625, 3595316635, -64.80461883544922, -24.500041961669922, 174.2027587890625, -1.0355022, 0.34082136, -0.87745476
2628, 3595366636, -64.86534118652344, -23.843971252441406, 174.15089416503906, -0.25440687, 0.31070846, -1.103262
2631, 3595416637, -65.24158477783203, -22.665002822875977, 174.08584594726562, 0.36226606, 0.26653156, -2.148882
2634, 3595466638, -66.07554626464844, -20.55095672607422, 173.94459533691406, 1.2498659, 2.6127967E-4, -3.6556559
2637, 3595516639, -66.33998107910156, -17.02602767944336, 173.70993041992188, 1.7567515, -0.31826544, -3.905498
2640, 3595566640, -66.01902770996094, -11.974559783935547, 173.04879760742188, 1.0933028, -0.30259803, -2.5737906
2644, 3595633308, -65.47815704345703, -3.210634708404541, 171.21658325195312, 0.9161899, -0.507782, -0.018963814
2650, 3595733310, -64.44771575927734, 10.672354698181152, 167.4455108642578, 0.7721709, -0.07516404, 1.8076458
2653, 3595783311, -62.707176208496094, 17.706100463867188, 165.51907348632812, 0.37909424, -1.0344654, 1.0647907
2659, 3595883313, -58.93727111816406, 33.73469161987305, 159.895751953125, 0.42379603, 0.20302793, 0.5875187
2662, 3595933314, -56.1044807434082, 43.50823211669922, 156.42503356933594, -0.098963305, 1.4687127, 0.5561743
2666, 3595999982, -57.6932373046875, 55.77021408081055, 149.55569458007812, -0.58735484, 0.911947, 2.3966236
2669, 3596049983, -60.21744918823242, 63.69534683227539, 142.89328002929688, -1.0514541, 1.4112716, 1.9297295
2672, 3596099984, -66.47663879394531, 70.11842346191406, 133.1643829345703, -1.0436721, 0.95255196, 1.0223083
2675, 3596149985, -80.18079376220703, 74.7195053100586, 118.10796356201172, -1.5349749, 0.76210475, 1.1435595
2678, 3596199986, -98.20355987548828, 76.66791534423828, 99.5428466796875, -2.0340936, 0.8598117, 1.3653116
2681, 3596249987, -110.26087951660156, 76.76174926757812, 86.2164535522461, -1.8075761, 0.3531189, 1.0925026
2684, 3596299988, -113.82877349853516, 76.39187622070312, 81.18500518798828, -1.8251051, -0.07536002, 0.4322071
2688, 3596366656, -109.23348236083984, 75.94771575927734, 84.40570831298828, -1.36372, -0.040968843, -0.16340733
2691, 3596416657, -103.01390075683594, 75.60914611816406, 89.89997100830078, -0.83897704, -0.321127, -0.49394512
2694, 3596466658, -97.39622497558594, 75.28011322021484, 95.57536315917969, -0.47303018, 0.02640869, -0.28200817
2697, 3596516659, -91.84693145751953, 75.00605773925781, 101.32234191894531, -0.051299024, 0.008769782, -0.17855358
2700, 3596566660, -86.96417236328125, 74.67981719970703, 106.63477325439453, 0.30228242, 0.0034476034, -0.3024721
2703, 3596616661, -83.08258056640625, 74.31834411621094, 111.40571594238281, 0.40612826, 0.22811764, -0.13826084
2707, 3596683329, -78.69111633300781, 73.7951889038086, 116.83810424804688, 0.4232406, 0.34627354, -0.11004162
2710, 3596733330, -76.75054931640625, 73.44861602783203, 119.46588134765625, 0.34823734, 0.50780004, -0.08321762
2716, 3596833332, -75.22625732421875, 72.94762420654297, 121.49405670166016, 0.23045838, 0.49365753, -0.07863426
2719, 3596883333, -74.89569854736328, 72.75387573242188, 121.6701889038086, 0.12572496, 0.39806092, -0.16829872
2722, 3596933334, -75.0888442993164, 72.5802993774414, 121.4535903930664, -0.17523669, 0.56638473, 0.04939556
2732, 3597100004, -71.095458984375, 71.38389587402344, 123.51029968261719, -0.37397087, 0.3002847, 0.21217251
2735, 3597150005, -67.21957397460938, 70.59347534179688, 126.21977996826172, -0.48711297, 0.7553214, 0.0081214905
2738, 3597200006, -64.22720336914062, 69.43586730957031, 128.55987548828125, -0.6508211, 1.6503081, 0.48765373
2741, 3597250007, -59.35955047607422, 67.5726547241211, 130.9729461669922, -0.5428252, 2.195946, 0.64965916
2748, 3597366676, -53.974002838134766, 61.86247253417969, 129.6688995361328, 0.45031747, -0.03993288, -0.26757336
2751, 3597416677, -54.33027648925781, 59.9905891418457, 128.36996459960938, 0.74880075, -1.1888828, -0.99814606
2754, 3597466678, -56.102840423583984, 59.008182525634766, 127.07319641113281, 0.33567536, -1.8998154, -1.1039219
2763, 3597616681, -63.4001579284668, 60.925689697265625, 124.52223205566406, 0.1769708, 0.069320254, -0.15498543
2766, 3597666682, -62.29249954223633, 62.22085189819336, 124.99131774902344, -0.22841828, -0.43435967, -0.36017513
2770, 3597733350, -63.42801284790039, 63.963165283203125, 124.94412994384766, -0.20443924, 0.4160992, 0.048498154
2773, 3597783351, -64.74329376220703, 65.35960388183594, 124.80109405517578, -0.18039373, 0.2781798, -0.03812027
2776, 3597833352, -66.0709228515625, 66.57609558105469, 124.73905181884766, -0.0039771544, 0.116725616, 0.0022354126
2782, 3597933354, -70.54521179199219, 68.44339752197266, 124.44510650634766, 0.081342556, 0.64810866, 0.1920023
2785, 3597983355, -72.23941802978516, 69.20254516601562, 124.77933502197266, 0.080965936, 1.0157671, -0.01188755
2788, 3598033356, -74.52824401855469, 69.86801147460938, 124.2837905883789, -0.38343096, 1.395339, 0.26453304
2792, 3598100024, -75.71512603759766, 70.53218078613281, 122.55786895751953, -0.21569967, 0.9410095, 0.082383156
2795, 3598150025, -76.1049575805664, 70.7485122680664, 120.78009796142578, -0.014032341, 0.31328818, -0.16298485
2801, 3598250027, -77.11695098876953, 70.68140411376953, 117.52041625976562, -0.012629795, -0.18422784, -0.06967831
2804, 3598300028, -77.17003631591797, 70.59740447998047, 116.71869659423828, -0.07056304, -0.3396949, -0.16335583
2807, 3598350029, -77.25955963134766, 70.60398864746094, 116.60408782958984, -0.11497941, -0.33129007, -0.04501629
2810, 3598400030, -77.25171661376953, 70.89041137695312, 116.78487396240234, -0.22284582, -0.017831508, -0.32738876
2814, 3598466698, -77.67071533203125, 71.41297149658203, 116.8146743774414, -0.21538313, 0.15343697, -0.07837963
2817, 3598516699, -77.50701904296875, 71.68604278564453, 116.90250396728516, -0.041654676, 0.26221034, 0.16622066
2820, 3598566700, -75.83040618896484, 71.6836166381836, 118.02893829345703, 0.21980041, 0.12645495, -0.06343269
2823, 3598616701, -74.40328216552734, 71.53043365478516, 119.46318054199219, 0.10964784, 0.26339647, -0.34300613
2826, 3598666702, -73.5590591430664, 71.4231948852539, 120.53919219970703, 0.09663236, 0.19008301, -0.32422447
2829, 3598716703, -73.55977630615234, 71.46498107910156, 120.9306869506836, 0.11279436, 0.2585645, -0.33815575
2836, 3598833372, -75.24955749511719, 72.08991241455078, 119.09610748291016, -0.0051573664, 0.21088071, -0.19519615
2842, 3598933374, -78.21355438232422, 72.47339630126953, 116.42372131347656, -0.12133005, 0.22686164, -0.07064247
2845, 3598983375, -78.73121643066406, 72.4949722290039, 115.81136322021484, -0.19831756, 0.18663758, -0.031513214
2848, 3599033376, -78.48621368408203, 72.39167022705078, 115.7808609008789, -0.18048859, -0.03461971, -0.13008785
2851, 3599083377, -78.11429595947266, 72.33063507080078, 115.9570083618164, -0.15473552, 0.07047782, -0.08419609
2855, 3599150045, -77.0882568359375, 72.22975158691406, 116.57035064697266, 0.0096727135, -0.031453077, -0.17386723
2858, 3599200046, -76.38355255126953, 72.21639251708984, 117.31546783447266, -0.074689, 0.08558885, -0.13104057
2861, 3599250047, -76.25096130371094, 72.3843002319336, 117.65443420410156, -0.05333822, 0.13236664, -0.19467449
2867, 3599350049, -76.76626586914062, 72.91519927978516, 118.03260803222656, -0.14929737, 0.32270485, -0.26127338
2870, 3599400050, -76.94586944580078, 73.1240463256836, 118.28813934326172, -0.13851103, 0.22892858, -0.19800663
2873, 3599450051, -77.29639434814453, 73.23529815673828, 118.33377838134766, -0.16103642, 0.37085566, -0.025360107
2877, 3599516719, -76.8604965209961, 73.21613311767578, 118.73332214355469, -0.09658297, 0.12301726, 0.018554688
2880, 3599566720, -76.3076400756836, 73.0267562866211, 119.19010925292969, 0.019412952, 0.2345759, 0.010221481
2883, 3599616721, -75.43743896484375, 72.75423431396484, 119.88233184814453, 0.104582354, 0.11999704, -0.12861443
2886, 3599666722, -74.84941101074219, 72.49794006347656, 120.45899200439453, 0.15189356, 0.08579929, -0.22048855
2889, 3599716723, -74.65557098388672, 72.31041717529297, 120.73056030273438, 0.07142867, 0.15688917, -0.23250866
2892, 3599766724, -74.77521514892578, 72.2733154296875, 120.58778381347656, 0.1167617, 0.08128904, -0.17793179
2896, 3599833392, -75.49832916259766, 72.31988525390625, 119.83895111083984, 0.061680462, 0.21017326, -0.12604904
2899, 3599883393, -75.85195922851562, 72.37620544433594, 119.34214782714844, 0.01882008, 0.013181041, -0.24608517
2908, 3600033396, -77.64730072021484, 72.52205657958984, 117.30691528320312, -0.10495169, 0.024603043, -0.13006496
2911, 3600083397, -77.84146881103516, 72.49687957763672, 116.99520111083984, -0.11937443, 0.11090376, -0.04951477
2914, 3600133398, -77.48185729980469, 72.38887023925781, 116.98998260498047, -0.06306796, 0.29561895, -0.14550114
2918, 3600200066, -76.40318298339844, 71.93920135498047, 117.15657043457031, 0.40279678, 0.68752086, 0.23227596
2921, 3600250067, -74.93318176269531, 70.77244567871094, 116.64955139160156, 0.88890153, 2.2355669, 0.86025906
2924, 3600300068, -71.98722839355469, 68.93074798583984, 115.76200866699219, 0.74500054, 3.1674914, 0.41856766
2927, 3600350069, -71.0989990234375, 66.203857421875, 113.83368682861328, -1.0320194, 6.4170995, 2.0074825
2930, 3600400070, -74.97406005859375, 62.35575485229492, 109.56565856933594, -4.597581, 4.113231, 3.7653198
2933, 3600450071, -78.10768127441406, 56.825740814208984, 107.28787231445312, -6.0040803, 2.1662273, 4.3516884
2937, 3600516739, -80.07511901855469, 46.78355026245117, 109.90389251708984, -6.5595665, -2.8629582, 4.123769
2943, 3600616741, -81.43951416015625, 29.412397384643555, 122.05459594726562, -2.0587065, -7.867857, 1.3083334
2946, 3600666742, -82.05786895751953, 20.925521850585938, 130.1046905517578, 1.4717162, -8.703657, -2.0483947
2949, 3600716743, -83.03771209716797, 13.662640571594238, 139.36012268066406, 3.8423884, -6.8672724, -4.937791
2952, 3600766744, -86.34246063232422, 7.860986709594727, 148.56349182128906, 5.030584, -3.9317167, -5.271031
2955, 3600816745, -89.33058166503906, 4.0672502517700195, 157.1572265625, 5.3023825, -0.039266925, -5.802795
2959, 3600883413, -94.33935546875, 1.3723467588424683, 167.2332000732422, 3.7660525, 4.4982376, -2.4944
2962, 3600933414, -95.98985290527344, 1.060477375984192, 173.39108276367188, 3.2692523, 4.096438, -1.3066015
2965, 3600983415, -97.03938293457031, 1.0156389474868774, 178.2473602294922, 1.7547014, 3.5119526, -0.310915
2968, 3601033416, -97.65986633300781, 0.8316953778266907, -178.5027618408203, 0.5141763, 3.0848107, -0.9043398
2971, 3601083417, -97.83496856689453, 1.0047831535339355, -176.858154296875, 1.023714, 2.8314726, -1.7495308
2981, 3601250087, -91.29753112792969, 7.394440650939941, 178.4957733154297, 4.0562963, 4.671206, -3.5864978
2984, 3601300088, -90.71977233886719, 12.095365524291992, 172.46275329589844, 4.321266, 3.7283592, -2.0295815
2987, 3601350089, -92.05411529541016, 18.587066650390625, 161.10255432128906, 4.3516026, 2.5758321, 2.0289688
2990, 3601400090, -91.51782989501953, 26.563241958618164, 143.6765899658203, 5.909187, -1.0179211, 2.1022892
2993, 3601450091, -89.6565170288086, 35.350677490234375, 121.94334411621094, 5.819124, -4.8178935, 3.8565884
2996, 3601500092, -91.43693542480469, 43.35314178466797, 96.99810028076172, 1.3369647, -9.096166, 4.984353
2999, 3601550093, -97.5270004272461, 48.00647735595703, 74.05247497558594, -4.8226676, -8.578754, 2.616228
3006, 3601666762, -120.54360961914062, 49.506736755371094, 46.88021469116211, -8.090817, 0.24887453, -0.1674614
3009, 3601716763, -122.07355499267578, 51.53068161010742, 45.011085510253906, -6.104148, 2.8670285, 0.21092701
3015, 3601816765, -115.45370483398438, 56.99504852294922, 45.61507797241211, -3.7599623, 3.144304, -0.6152668
3022, 3601933434, -104.00003814697266, 63.682334899902344, 56.868324279785156, -2.269598, 2.332638, 0.4624424
3025, 3601983435, -97.53714752197266, 66.0028076171875, 66.63048553466797, -1.9989622, 2.4478693, 0.38426876
3028, 3602033436, -88.7253189086914, 67.45995330810547, 79.55194854736328, -1.889398, 1.9374477, 1.4539671
3031, 3602083437, -77.67675018310547, 66.76056671142578, 95.58016967773438, -0.8178876, 1.3947471, 2.944831
3034, 3602133438, -67.02262878417969, 63.00385284423828, 111.091064453125, 0.50937766, 1.5824803, 3.6672678
3037, 3602183439, -58.672786712646484, 56.63764953613281, 123.02916717529297, 1.674886, 0.5297098, 2.7196465
3040, 3602233440, -54.02899932861328, 48.98206329345703, 130.7489471435547, 2.5964088, -0.38337338, 1.8272591
3044, 3602300108, -50.77415084838867, 38.946258544921875, 136.95262145996094, 2.7564774, -1.0931454, -1.1168585
3047, 3602350109, -50.35737228393555, 33.00479507446289, 139.56790161132812, 2.3188105, -1.1729221, -2.2627368
3050, 3602400110, -49.884517669677734, 29.044294357299805, 141.57835388183594, 1.9972782, -1.5021058, -3.2975864
3053, 3602450111, -50.38761901855469, 27.461803436279297, 143.12054443359375, 1.8909312, -1.0327125, -3.1990848
3056, 3602500112, -51.0425910949707, 27.883056640625, 144.58065795898438, 1.3830444, -0.2949566, -2.5789237
3059, 3602550113, -52.31364059448242, 29.735212326049805, 145.4977264404297, 1.036521, 0.29666927, -1.2400637
3062, 3602600114, -53.606956481933594, 31.89577865600586, 145.40301513671875, 0.63802433, 1.1544319, -0.16769409
3066, 3602666782, -54.332191467285156, 34.77009201049805, 143.87278747558594, -0.21597633, 1.4834807, 0.43117428
3069, 3602716783, -55.4317741394043, 36.96581268310547, 141.58111572265625, -0.2019063, 1.9850376, 0.6507292
3075, 3602816785, -60.633995056152344, 40.89169692993164, 133.52578735351562, -0.13052435, 2.7201395, 1.7881117
3078, 3602866786, -64.1222915649414, 41.428192138671875, 127.9477767944336, -0.6622141, 3.8276687, 4.0389194
3081, 3602916787, -68.34294891357422, 39.6051025390625, 121.66256713867188, -1.314788, 3.1254191, 7.033205
3088, 3603033456, -71.55756378173828, 22.973997116088867, 115.20772552490234, -1.6972277, -2.6308336, 4.7459936
