sep=,
DeviceTag:,Xsens_3,,,,,,,,,,,,,,,,,
FirmwareVersion:,2.2.1,,,,,,,,,,,,,,,,,
AppVersion:,2022.0.1,,,,,,,,,,,,,,,,,
SyncStatus:,Synced,,,,,,,,,,,,,,,,,
OutputRate:,60Hz,,,,,,,,,,,,,,,,,
FilterProfile:,General,,,,,,,,,,,,,,,,,
Measurement Mode:,Sensor fusion Mode - Complete (Euler),,,,,,,,,,,,,,,,,
StartTime:,2023-05-17 15:27:09.390 +0200,,,,,,,,,,,,,,,,,
© Xsens Technologies B. V. 2005-2023,,,,,,,,,,,,,,,,,,,

PacketCounter,SampleTimeFine,Euler_X,Euler_Y,Euler_Z,FreeAcc_X,FreeAcc_Y,FreeAcc_Z
1, 3551582427, -123.85127258300781, 72.45372772216797, -94.47755432128906, 0.07336678, 0.122794665, -0.13654327
2, 3551599094, -123.8271484375, 72.46322631835938, -94.47945404052734, 0.027266793, 0.022374596, -0.14837265
3, 3551615761, -123.79519653320312, 72.47416687011719, -94.49072265625, 0.04064026, -0.012852676, -0.1992712
4, 3551632428, -123.76481628417969, 72.4767074584961, -94.53508758544922, 0.060464725, 0.0041153766, -0.22871399
5, 3551649095, -123.75035095214844, 72.47278594970703, -94.5992431640625, 0.10440424, 0.061712373, -0.26972008
6, 3551665762, -123.75802612304688, 72.46513366699219, -94.66266632080078, 0.13954316, 0.17470583, -0.29561996
7, 3551682429, -123.80219268798828, 72.45508575439453, -94.73461151123047, 0.22446959, 0.1922861, -0.27569294
8, 3551699096, -123.88963317871094, 72.4393310546875, -94.83514404296875, 0.29916763, 0.14868551, -0.21087837
9, 3551715763, -124.0179214477539, 72.42498779296875, -94.961181640625, 0.3134635, 0.12602678, -0.12800598
10, 3551732430, -124.14635467529297, 72.41991424560547, -95.08534240722656, 0.25692636, 0.18628548, -0.087750435
11, 3551749097, -124.24816131591797, 72.4255599975586, -95.16667175292969, 0.21349868, 0.22582072, -0.075865746
12, 3551765764, -124.33478546142578, 72.43370819091797, -95.2290267944336, 0.15393695, 0.17263761, -0.09836674
13, 3551782431, -124.39115905761719, 72.44457244873047, -95.26507568359375, 0.123590596, 0.0935932, -0.114393234
14, 3551799098, -124.42108917236328, 72.45562744140625, -95.29396057128906, 0.09482582, 0.017070914, -0.14201355
15, 3551815765, -124.4139175415039, 72.45938873291016, -95.31485748291016, 0.05883934, -0.025645597, -0.13746548
16, 3551832432, -124.36090087890625, 72.45510864257812, -95.31791687011719, 0.07618171, -0.024225283, -0.09267521
17, 3551849099, -124.27812194824219, 72.44976043701172, -95.30464935302734, 0.10004574, 0.08364559, -0.069563866
18, 3551865766, -124.19300079345703, 72.45426177978516, -95.28128051757812, 0.16800307, 0.2132805, -0.12833977
19, 3551882433, -124.1136474609375, 72.46308898925781, -95.23454284667969, 0.24737287, 0.25294352, -0.24290657
20, 3551899100, -124.06150817871094, 72.46405029296875, -95.18069458007812, 0.20596808, 0.151022, -0.26957798
21, 3551915767, -124.01263427734375, 72.46125030517578, -95.12199401855469, 0.17816485, 0.11851562, -0.28923988
22, 3551932434, -123.99893188476562, 72.4579086303711, -95.0888671875, 0.124875344, 0.12871815, -0.2825346
23, 3551949101, -124.00797271728516, 72.4539566040039, -95.0615463256836, 0.093804814, 0.16108501, -0.27549362
24, 3551965768, -124.02485656738281, 72.44892120361328, -95.03475952148438, 0.062101733, 0.15443018, -0.28259087
25, 3551982435, -124.0353775024414, 72.44435119628906, -95.01074981689453, 0.034625284, 0.1317662, -0.2621174
26, 3551999102, -124.05886840820312, 72.44139099121094, -94.99906921386719, 0.041287314, 0.15734899, -0.22671604
27, 3552015769, -124.07784271240234, 72.44363403320312, -94.99340057373047, 0.044586364, 0.15498483, -0.21475124
28, 3552032436, -124.0865478515625, 72.44815826416016, -95.01388549804688, 0.03308707, 0.15501964, -0.22523117
29, 3552049103, -124.10538482666016, 72.450927734375, -95.05288696289062, 0.046857703, 0.14753269, -0.23656178
30, 3552065770, -124.12027740478516, 72.45413208007812, -95.08204650878906, 0.05670032, 0.13615689, -0.20194817
31, 3552082437, -124.13711547851562, 72.4594955444336, -95.1131820678711, 0.1087851, 0.18211494, -0.17979527
32, 3552099104, -124.15133666992188, 72.46720886230469, -95.13614654541016, 0.12553963, 0.21722701, -0.19971848
33, 3552115771, -124.1777572631836, 72.47149658203125, -95.14811706542969, 0.11311097, 0.21366642, -0.18444157
34, 3552132438, -124.20433044433594, 72.47454071044922, -95.17317199707031, 0.045466557, 0.12687457, -0.19267178
35, 3552149105, -124.23255157470703, 72.47715759277344, -95.20333862304688, 0.026699701, 0.03296512, -0.20062065
36, 3552165772, -124.23387145996094, 72.47552490234375, -95.20963287353516, 0.045346756, -0.009123966, -0.15390873
37, 3552182439, -124.22274017333984, 72.4723892211914, -95.2196044921875, 0.06515, -0.0022336207, -0.13121605
38, 3552199106, -124.19505310058594, 72.46688842773438, -95.22396850585938, 0.09073866, 0.0872532, -0.101696014
39, 3552215773, -124.1368179321289, 72.46488952636719, -95.20196533203125, 0.13171172, 0.14325158, -0.1937933
40, 3552232440, -124.07476043701172, 72.46345520019531, -95.16887664794922, 0.18171291, 0.14892316, -0.26185513
41, 3552249107, -124.0477523803711, 72.45326232910156, -95.16029357910156, 0.20127073, 0.14854279, -0.26642704
42, 3552265774, -124.06427001953125, 72.44164276123047, -95.17295837402344, 0.15982339, 0.13710749, -0.22144699
43, 3552282441, -124.07970428466797, 72.43582916259766, -95.17372131347656, 0.13663124, 0.19622102, -0.20044804
44, 3552299108, -124.09786987304688, 72.43099975585938, -95.16609954833984, 0.15112472, 0.20295174, -0.13951492
45, 3552315775, -124.11363983154297, 72.43172454833984, -95.14315795898438, 0.17559893, 0.16250639, -0.11975479
46, 3552332442, -124.12490844726562, 72.43901062011719, -95.12226104736328, 0.112199925, 0.10685529, -0.10180378
47, 3552349109, -124.12810516357422, 72.45213317871094, -95.09891510009766, 0.048521534, 0.05171693, -0.12356472
48, 3552365776, -124.12166595458984, 72.4654769897461, -95.09600830078125, 0.021823358, 0.007691807, -0.16085052
49, 3552382443, -124.08056640625, 72.47885131835938, -95.0946044921875, 0.08632562, -0.015835278, -0.19473648
50, 3552399110, -124.01040649414062, 72.48651123046875, -95.09444427490234, 0.11606715, 0.0043543675, -0.1888113
51, 3552415777, -123.91665649414062, 72.49571990966797, -95.08617401123047, 0.17491744, 0.07892361, -0.21817112
52, 3552432444, -123.83478546142578, 72.50188446044922, -95.09671783447266, 0.21635965, 0.12886807, -0.21910477
53, 3552449111, -123.76095581054688, 72.50653076171875, -95.09112548828125, 0.21402751, 0.159492, -0.18062115
54, 3552465778, -123.67434692382812, 72.51602935791016, -95.0558090209961, 0.1631716, 0.20445266, -0.17971992
55, 3552482445, -123.6089096069336, 72.52791595458984, -95.01811981201172, 0.12170862, 0.18119706, -0.19925117
56, 3552499112, -123.5381088256836, 72.52923583984375, -94.9630355834961, 0.14857756, 0.12470061, -0.1750822
57, 3552515779, -123.43865203857422, 72.5280990600586, -94.88923645019531, 0.094796315, 0.08825957, -0.17740631
58, 3552532446, -123.33192443847656, 72.53070831298828, -94.81417083740234, 0.11997997, 0.1062323, -0.19239807
59, 3552549113, -123.23065948486328, 72.52877044677734, -94.77715301513672, 0.17193288, 0.101317026, -0.16452217
60, 3552565780, -123.11048889160156, 72.52488708496094, -94.72372436523438, 0.19735345, 0.108204804, -0.16444588
61, 3552582447, -123.00767517089844, 72.52335357666016, -94.70024108886719, 0.15326507, 0.14421807, -0.19805336
62, 3552599114, -122.95861053466797, 72.52005004882812, -94.71924591064453, 0.16413093, 0.1327577, -0.25234604
63, 3552615781, -122.97281646728516, 72.5115737915039, -94.78382110595703, 0.19835433, 0.050770465, -0.27760792
64, 3552632448, -123.04800415039062, 72.49638366699219, -94.89586639404297, 0.22304492, -0.001277656, -0.2842722
65, 3552649115, -123.17594909667969, 72.4754638671875, -95.05005645751953, 0.30018863, 0.029111836, -0.24968338
66, 3552665782, -123.3542709350586, 72.45133972167969, -95.24820709228516, 0.34968334, 0.11780264, -0.20145416
67, 3552682449, -123.57785034179688, 72.42362213134766, -95.48770904541016, 0.3991456, 0.22644943, -0.15811634
68, 3552699116, -123.8156509399414, 72.40013122558594, -95.73184967041016, 0.34695157, 0.23504612, -0.116187096
69, 3552715783, -124.06071472167969, 72.37867736816406, -95.96675109863281, 0.25425315, 0.2085187, -0.11619091
70, 3552732450, -124.28864288330078, 72.36154174804688, -96.17859649658203, 0.13164109, 0.09075397, -0.0928669
71, 3552749117, -124.48674011230469, 72.34992980957031, -96.36541748046875, 0.057554588, 0.09123838, -0.117378235
72, 3552765784, -124.63214111328125, 72.34204864501953, -96.4999771118164, 0.011160896, 0.120287746, -0.18425655
73, 3552782451, -124.73703002929688, 72.33241271972656, -96.57318115234375, -0.017749611, 0.15667957, -0.20038795
74, 3552799118, -124.81678009033203, 72.31993865966797, -96.60472106933594, -0.0012346855, 0.14013083, -0.20550632
75, 3552815785, -124.88402557373047, 72.31218719482422, -96.59761810302734, -0.04884071, 0.13126868, -0.17768002
76, 3552832452, -124.91108703613281, 72.31094360351562, -96.53703308105469, -0.038222056, 0.14357452, -0.17637444
77, 3552849119, -124.8909912109375, 72.31327819824219, -96.43949890136719, -0.011380386, 0.10742597, -0.18271255
78, 3552865786, -124.83192443847656, 72.32371520996094, -96.31456756591797, 0.04263331, 0.08935244, -0.19946575
79, 3552882453, -124.76837921142578, 72.3402099609375, -96.19293975830078, 0.020463506, 0.061966844, -0.26972008
80, 3552899120, -124.70767211914062, 72.35591125488281, -96.10709381103516, -0.012010246, 0.033837683, -0.26624584
81, 3552915787, -124.63923645019531, 72.3697280883789, -96.05304718017578, 0.008695101, 0.0035575998, -0.26386833
82, 3552932454, -124.56909942626953, 72.37932586669922, -96.04723358154297, 0.10036715, -0.02705954, -0.24248981
83, 3552949121, -124.52297973632812, 72.38494873046875, -96.08998107910156, 0.16482694, -0.0059202434, -0.20841789
84, 3552965788, -124.53227233886719, 72.38534545898438, -96.20201110839844, 0.2485896, 0.06175812, -0.17584991
85, 3552982455, -124.59105682373047, 72.37861633300781, -96.34796142578125, 0.30012426, 0.16162118, -0.063632965
86, 3552999122, -124.69715118408203, 72.37244415283203, -96.48777770996094, 0.36530644, 0.24267259, -0.033636093
87, 3553015789, -124.86349487304688, 72.37371826171875, -96.6104965209961, 0.27128348, 0.3031078, -0.07220745
88, 3553032456, -125.09110260009766, 72.37606811523438, -96.748046875, 0.14693026, 0.18188742, -0.1256733
89, 3553049123, -125.33259582519531, 72.37178802490234, -96.88704681396484, 0.09113026, -0.044988856, -0.13510418
90, 3553065790, -125.53890228271484, 72.35984802246094, -97.0283203125, 0.07381068, -0.1765544, -0.11250019
91, 3553082457, -125.6669692993164, 72.34810638427734, -97.15070343017578, 0.081802614, -0.15242745, -0.05499363
92, 3553099124, -125.72080993652344, 72.34607696533203, -97.25630187988281, 0.12495715, -0.015522025, -0.04286194
93, 3553115791, -125.72736358642578, 72.34892272949219, -97.36274719238281, 0.20926043, 0.07551028, -0.07329941
94, 3553132458, -125.68721771240234, 72.35063934326172, -97.46202087402344, 0.1919042, 0.11659693, -0.08845329
95, 3553149125, -125.62529754638672, 72.3537826538086, -97.54084777832031, 0.15934865, 0.07988671, -0.13311958
96, 3553165792, -125.56507873535156, 72.36360168457031, -97.59577941894531, 0.14274879, 0.08714309, -0.14713192
97, 3553182459, -125.502197265625, 72.37491607666016, -97.63349151611328, 0.18091586, 0.11625778, -0.16497326
98, 3553199126, -125.44195556640625, 72.38460540771484, -97.64543151855469, 0.23972525, 0.1542671, -0.18866253
99, 3553215793, -125.39004516601562, 72.39659118652344, -97.61273956298828, 0.24635777, 0.18404599, -0.19480324
100, 3553232460, -125.33897399902344, 72.41712188720703, -97.54993438720703, 0.2115651, 0.21180563, -0.24752045
101, 3553249127, -125.30598449707031, 72.44170379638672, -97.48542022705078, 0.17874242, 0.16058452, -0.31570148
102, 3553265794, -125.2723617553711, 72.46905517578125, -97.39911651611328, 0.15295483, 0.13217743, -0.3087511
103, 3553282461, -125.24202728271484, 72.50001525878906, -97.33186340332031, 0.16944294, 0.1108726, -0.27784348
104, 3553299128, -125.18941497802734, 72.53532409667969, -97.2554702758789, 0.15356055, 0.15986839, -0.29323673
105, 3553315795, -125.1182861328125, 72.57181549072266, -97.16043090820312, 0.11255352, 0.19868933, -0.3408823
106, 3553332462, -125.07088470458984, 72.6032485961914, -97.08026123046875, 0.043850113, 0.2158616, -0.29707336
107, 3553349129, -125.04408264160156, 72.6266860961914, -97.0210189819336, 0.058140635, 0.21981715, -0.2341032
108, 3553365796, -125.01580810546875, 72.64910125732422, -96.9561996459961, 0.09058399, 0.21972896, -0.18048763
109, 3553382463, -125.00132751464844, 72.67098236083984, -96.88890838623047, 0.050256442, 0.2430232, -0.22708702
110, 3553399130, -125.0157699584961, 72.68799591064453, -96.83636474609375, 0.003485908, 0.20118396, -0.22219467
111, 3553415797, -125.0511245727539, 72.70421600341797, -96.7637710571289, -0.0061993552, 0.170128, -0.19952202
112, 3553432464, -125.10865783691406, 72.71932983398438, -96.70223999023438, -0.080980085, 0.10542134, -0.16549969
113, 3553449131, -125.17613983154297, 72.7333755493164, -96.67869567871094, -0.13650696, 0.029402683, -0.13244247
114, 3553465798, -125.22773742675781, 72.742919921875, -96.68281555175781, -0.11770774, -0.055334374, -0.15154648
115, 3553482465, -125.23651885986328, 72.74351501464844, -96.71846771240234, -0.12160669, -0.083149895, -0.16873264
116, 3553499132, -125.21759796142578, 72.73662567138672, -96.7750015258789, -0.13520426, 0.008981497, -0.22878075
117, 3553515799, -125.18649291992188, 72.72386932373047, -96.86830139160156, -0.07034221, 0.12284317, -0.28969288
118, 3553532466, -125.16063690185547, 72.71037292480469, -96.97061157226562, 0.047965433, 0.2087497, -0.28424263
119, 3553549133, -125.12950134277344, 72.70079040527344, -97.04595184326172, 0.11021424, 0.30840778, -0.29195595
120, 3553565800, -125.08800506591797, 72.69115447998047, -97.07439422607422, 0.13616723, 0.2911296, -0.29514027
121, 3553582467, -125.06632232666016, 72.6815185546875, -97.10506439208984, 0.1416634, 0.25185835, -0.29093838
122, 3553599134, -125.07243347167969, 72.67516326904297, -97.14364624023438, 0.09133723, 0.26242003, -0.2656622
123, 3553615801, -125.07207489013672, 72.6725845336914, -97.15625, 0.061046306, 0.23507844, -0.26152515
124, 3553632468, -125.05133819580078, 72.67652130126953, -97.14698028564453, 0.07052817, 0.21389014, -0.2913761
125, 3553649135, -125.0251693725586, 72.674072265625, -97.13066101074219, 0.024364254, 0.14999878, -0.33701134
126, 3553665802, -124.9955062866211, 72.66654968261719, -97.11870574951172, 0.022724114, 0.19070497, -0.31956577
127, 3553682469, -124.95886993408203, 72.6556625366211, -97.0971450805664, 0.07638823, 0.21010992, -0.31016064
128, 3553699136, -124.90865325927734, 72.64491271972656, -97.05098724365234, 0.108778395, 0.24844292, -0.24197865
129, 3553715803, -124.8639907836914, 72.63545227050781, -96.9979248046875, 0.099601395, 0.31566828, -0.1402998
130, 3553732470, -124.84599304199219, 72.63362121582031, -96.93749237060547, 0.09878289, 0.28619325, -0.047142982
131, 3553749137, -124.81509399414062, 72.64293670654297, -96.86834716796875, 0.056032464, 0.16174968, -0.009105682
132, 3553765804, -124.74458312988281, 72.65057373046875, -96.79212951660156, 0.018917896, 0.16032952, -0.025389671
133, 3553782471, -124.71857452392578, 72.64896392822266, -96.74899291992188, -0.06764396, 0.17831612, -0.0013074875
134, 3553799138, -124.67572021484375, 72.64803314208984, -96.69929504394531, 0.016465753, 0.13113782, 0.014086723
135, 3553815805, -124.57471466064453, 72.65160369873047, -96.62103271484375, 0.03707454, 0.0038084371, -0.00699234
136, 3553832472, -124.41766357421875, 72.65513610839844, -96.51087951660156, 0.057792403, 0.064190015, -0.07064438
137, 3553849139, -124.25178527832031, 72.655029296875, -96.41670227050781, 0.075738706, 0.09186857, -0.09957695
138, 3553865806, -124.0947036743164, 72.65632629394531, -96.35088348388672, 0.18110003, 0.012089928, -0.04044342
139, 3553882473, -123.9264907836914, 72.6593246459961, -96.29106140136719, 0.20072134, -0.0076213446, -0.07674122
140, 3553899140, -123.748046875, 72.65853881835938, -96.2484130859375, 0.224791, -0.030293325, -0.13298512
141, 3553915807, -123.56478881835938, 72.65389251708984, -96.22764587402344, 0.29521725, -0.025496515, -0.12277603
142, 3553932474, -123.37564849853516, 72.64824676513672, -96.19408416748047, 0.34884873, 0.03940743, -0.12679768
143, 3553949141, -123.19575500488281, 72.64433288574219, -96.1334228515625, 0.36648613, 0.07636158, -0.20367718
144, 3553965808, -123.03656768798828, 72.640625, -96.08638000488281, 0.34507942, 0.093654245, -0.28230572
145, 3553982475, -122.89704132080078, 72.6292495727539, -96.03955841064453, 0.29941034, 0.099382214, -0.27423
146, 3553999142, -122.76109313964844, 72.61477661132812, -95.96221923828125, 0.32630834, 0.057862923, -0.21465874
147, 3554015809, -122.63311004638672, 72.60123443603516, -95.88849639892578, 0.31093335, 0.07219938, -0.20435715
148, 3554032476, -122.50692749023438, 72.58736419677734, -95.80229949951172, 0.25364473, 0.10751099, -0.2367611
149, 3554049143, -122.40499877929688, 72.56680297851562, -95.72970581054688, 0.26931828, 0.119633384, -0.23380661
150, 3554065810, -122.30952453613281, 72.54510498046875, -95.66668701171875, 0.24502876, 0.10665982, -0.16614819
151, 3554082477, -122.19910430908203, 72.52741241455078, -95.56028747558594, 0.24689285, 0.111224435, -0.21004581
152, 3554099144, -122.10426330566406, 72.51274871826172, -95.46601867675781, 0.21771815, 0.08137679, -0.19634914
153, 3554115811, -122.01654815673828, 72.49899291992188, -95.36219024658203, 0.23217542, 0.08337237, -0.13151836
154, 3554132478, -121.91992950439453, 72.4880142211914, -95.24188995361328, 0.22030286, 0.11291514, -0.11014843
155, 3554149145, -121.81681060791016, 72.48463439941406, -95.07341003417969, 0.15269779, 0.17861193, -0.12159634
156, 3554165812, -121.70935821533203, 72.48644256591797, -94.87661743164062, 0.0731844, 0.21696171, -0.14904118
157, 3554182479, -121.57747650146484, 72.489501953125, -94.64250946044922, 0.014593608, 0.07116879, -0.21051311
158, 3554199146, -121.42813110351562, 72.48931884765625, -94.43598175048828, 0.0065623405, -0.08942301, -0.26298046
159, 3554215813, -121.25691223144531, 72.48456573486328, -94.2433853149414, 0.030203752, -0.15255843, -0.27687073
160, 3554232480, -121.08773803710938, 72.4717788696289, -94.09567260742188, 0.16741166, -0.08191811, -0.2776575
161, 3554249147, -120.93822479248047, 72.44989013671875, -93.9968490600586, 0.2703711, 0.07953555, -0.2508316
162, 3554265814, -120.83450317382812, 72.42444610595703, -93.94087982177734, 0.3064528, 0.167798, -0.27782536
163, 3554282481, -120.76847076416016, 72.40129852294922, -93.86209869384766, 0.32200706, 0.26031536, -0.29183578
164, 3554299148, -120.76795196533203, 72.38613891601562, -93.78527069091797, 0.213901, 0.23310432, -0.2755251
165, 3554315815, -120.8097915649414, 72.37193298339844, -93.73587036132812, 0.18158488, 0.112874836, -0.23314285
166, 3554332482, -120.8486557006836, 72.35991668701172, -93.6942138671875, 0.06683216, 0.030545114, -0.20642757
167, 3554349149, -120.89061737060547, 72.34109497070312, -93.67997741699219, 0.040052626, 0.022710538, -0.22679329
168, 3554365816, -120.94068908691406, 72.3171157836914, -93.71187591552734, 0.053338237, 0.018665735, -0.21146011
169, 3554382483, -120.99549102783203, 72.29470825195312, -93.77672576904297, 0.07980977, 0.0075431713, -0.14287281
170, 3554399150, -121.04924774169922, 72.2708740234375, -93.84147644042969, 0.09230102, 0.078597605, -0.0870285
171, 3554415817, -121.11205291748047, 72.25157928466797, -93.90435028076172, 0.09728535, 0.16094726, -0.052789688
172, 3554432484, -121.16851043701172, 72.23895263671875, -93.95499420166016, 0.09818477, 0.2078435, -0.06539059
173, 3554449151, -121.24715423583984, 72.22838592529297, -94.00996398925781, 0.08319599, 0.20026113, -0.12456989
174, 3554465818, -121.31715393066406, 72.2261962890625, -94.06178283691406, 0.069984585, 0.0833011, -0.1801815
175, 3554482485, -121.35716247558594, 72.2259292602539, -94.09790802001953, 0.07447764, -0.045316022, -0.1878252
176, 3554499152, -121.37358093261719, 72.22355651855469, -94.15290069580078, 0.105651446, -0.10660646, -0.20556736
177, 3554515819, -121.3572006225586, 72.22244262695312, -94.22186279296875, 0.20538025, -0.020461941, -0.20409393
178, 3554532486, -121.33235931396484, 72.22215270996094, -94.2983627319336, 0.1548091, 0.08706598, -0.2111063
179, 3554549153, -121.30496978759766, 72.2210464477539, -94.36024475097656, 0.17727482, 0.16958152, -0.24893951
180, 3554565820, -121.2937240600586, 72.22342681884766, -94.42498016357422, 0.2269488, 0.19698657, -0.2602272
181, 3554582487, -121.2986831665039, 72.22821807861328, -94.4718017578125, 0.26893342, 0.16691597, -0.24989223
182, 3554599154, -121.31596374511719, 72.2320785522461, -94.49950408935547, 0.24136047, 0.13408378, -0.23804569
183, 3554615821, -121.35279083251953, 72.24103546142578, -94.51788330078125, 0.25219235, 0.093207866, -0.24654484
184, 3554632488, -121.38327026367188, 72.24891662597656, -94.52595520019531, 0.20936102, 0.02889553, -0.24212551
185, 3554649155, -121.39514923095703, 72.25484466552734, -94.5294418334961, 0.14295217, 0.027435489, -0.24507427
186, 3554665822, -121.3965835571289, 72.26638793945312, -94.5224838256836, 0.09793042, 0.082686245, -0.2247343
187, 3554682489, -121.39934539794922, 72.28102111816406, -94.51293182373047, 0.11861028, 0.11317791, -0.2220726
188, 3554699156, -121.40138244628906, 72.2926254272461, -94.5066146850586, 0.1353286, 0.12508364, -0.20580673
189, 3554715823, -121.40019226074219, 72.30342864990234, -94.50080108642578, 0.1439182, 0.07645613, -0.17948437
190, 3554732490, -121.39874267578125, 72.31304168701172, -94.51514434814453, 0.14209792, 0.049229175, -0.18215561
191, 3554749157, -121.39923858642578, 72.3207778930664, -94.52320098876953, 0.14619133, 0.05448363, -0.17856693
192, 3554765824, -121.42448425292969, 72.33052062988281, -94.54548645019531, 0.15621455, 0.10691882, -0.16836071
193, 3554782491, -121.46791076660156, 72.34136199951172, -94.56721496582031, 0.17926991, 0.15584575, -0.19392872
194, 3554799158, -121.51280975341797, 72.35657501220703, -94.57073974609375, 0.13269651, 0.15588668, -0.19404316
195, 3554815825, -121.5785140991211, 72.3722915649414, -94.59967041015625, 0.05481521, 0.08307661, -0.21168613
196, 3554832492, -121.63541412353516, 72.38829803466797, -94.6272201538086, 0.05748038, -0.021336043, -0.19360256
197, 3554849159, -121.64642333984375, 72.40342712402344, -94.6433334350586, 0.09197498, -0.0678168, -0.2106018
198, 3554865826, -121.63903045654297, 72.42022705078125, -94.67237091064453, 0.17935619, 0.013289074, -0.186059
199, 3554882493, -121.6540298461914, 72.43260192871094, -94.73975372314453, 0.25596303, 0.041036643, -0.14341164
200, 3554899160, -121.67621612548828, 72.43956756591797, -94.81954956054688, 0.22908111, 0.12763053, -0.13451672
201, 3554915827, -121.71134948730469, 72.4475326538086, -94.8885726928711, 0.21440838, 0.18552858, -0.101620674
202, 3554932494, -121.75653839111328, 72.45936584472656, -94.92621612548828, 0.21077138, 0.21016988, -0.08553219
203, 3554949161, -121.81707763671875, 72.4737548828125, -94.95014953613281, 0.20284203, 0.15775639, -0.11717796
204, 3554965828, -121.86964416503906, 72.49083709716797, -94.96086120605469, 0.14615646, 0.07247299, -0.14806175
205, 3554982495, -121.91133880615234, 72.50584411621094, -94.98361206054688, 0.10275785, 0.01813696, -0.1582489
206, 3554999162, -121.90841674804688, 72.51640319824219, -94.99441528320312, 0.06540436, -0.04977723, -0.1739111
207, 3555015829, -121.84980010986328, 72.5259017944336, -94.9811019897461, 0.12899692, -0.038470715, -0.16056347
208, 3555032496, -121.77613067626953, 72.53289031982422, -94.96989440917969, 0.121971466, 0.028623097, -0.15796375
209, 3555049163, -121.69386291503906, 72.539794921875, -94.97110748291016, 0.11757631, 0.11704186, -0.18911266
210, 3555065830, -121.62963104248047, 72.54736328125, -94.9715576171875, 0.1940535, 0.18253255, -0.22679138
211, 3555082497, -121.58221435546875, 72.55349731445312, -94.95512390136719, 0.21110351, 0.21282378, -0.16937733
212, 3555099164, -121.54104614257812, 72.56048583984375, -94.9150619506836, 0.21733685, 0.18583952, -0.15589523
213, 3555115831, -121.52580261230469, 72.57032012939453, -94.88595581054688, 0.2221227, 0.11903618, -0.1591444
214, 3555132498, -121.50489807128906, 72.58003997802734, -94.84385681152344, 0.1676014, 0.054627396, -0.20004559
215, 3555149165, -121.45977020263672, 72.59001159667969, -94.80228424072266, 0.10310295, 0.017106174, -0.2617874
216, 3555165832, -121.43217468261719, 72.59355926513672, -94.7865219116211, 0.08192375, -0.008660233, -0.3061247
217, 3555182499, -121.4039535522461, 72.59202575683594, -94.77950286865234, 0.13349266, 0.044092875, -0.29749584
218, 3555199166, -121.37867736816406, 72.58644104003906, -94.75921630859375, 0.16243848, 0.20053789, -0.21299648
219, 3555215833, -121.3726577758789, 72.58140563964844, -94.72550201416016, 0.20650719, 0.25592858, -0.16469002
220, 3555232500, -121.39676666259766, 72.58086395263672, -94.6918716430664, 0.19384786, 0.21161675, -0.1453743
221, 3555249167, -121.44136810302734, 72.58112335205078, -94.66645812988281, 0.1766852, 0.08874258, -0.12949085
222, 3555265834, -121.4643325805664, 72.5848159790039, -94.64212036132812, 0.11119725, -0.015185693, -0.1496849
223, 3555282501, -121.47169494628906, 72.58743286132812, -94.63963317871094, 0.07109411, 0.023014039, -0.20632553
224, 3555299168, -121.47021484375, 72.58612060546875, -94.65764617919922, 0.05428906, 0.07186123, -0.19374943
225, 3555315835, -121.4755859375, 72.58394622802734, -94.69969177246094, 0.14865623, 0.110774755, -0.17071152
226, 3555332502, -121.4633560180664, 72.58519744873047, -94.72654724121094, 0.1823307, 0.13978092, -0.17646503
227, 3555349169, -121.43934631347656, 72.58792877197266, -94.72704315185547, 0.16198699, 0.17715044, -0.23750782
228, 3555365836, -121.43836212158203, 72.59510803222656, -94.7361068725586, 0.18521759, 0.14014047, -0.2601118
229, 3555382503, -121.47102355957031, 72.60118865966797, -94.7991714477539, 0.23932873, 0.042716373, -0.23143768
230, 3555399170, -121.49920654296875, 72.60096740722656, -94.86790466308594, 0.18459989, 0.038045015, -0.21470356
231, 3555415837, -121.52222442626953, 72.60435485839844, -94.91987609863281, 0.16513897, 0.18285921, -0.20349216
232, 3555432504, -121.55855560302734, 72.61141204833984, -94.95012664794922, 0.16620065, 0.28935644, -0.1708889
233, 3555449171, -121.61331939697266, 72.61865997314453, -94.96118927001953, 0.1532682, 0.23827338, -0.14339733
234, 3555465838, -121.6699447631836, 72.62673950195312, -94.951904296875, 0.094242, 0.13937022, -0.16238976
235, 3555482505, -121.72199249267578, 72.6311264038086, -94.95149993896484, 0.025992768, -0.0056392876, -0.17472649
236, 3555499172, -121.7342300415039, 72.63197326660156, -94.93983459472656, 0.0088225035, -0.08002636, -0.15499973
237, 3555515839, -121.68961334228516, 72.63459777832031, -94.9040756225586, 0.046426322, -0.057225965, -0.11636543
238, 3555532506, -121.62342834472656, 72.63819885253906, -94.88785552978516, 0.064322114, 0.024480117, -0.13855267
239, 3555549173, -121.55368041992188, 72.64366149902344, -94.88021087646484, 0.13682838, 0.10381495, -0.19581985
240, 3555565840, -121.48771667480469, 72.6457748413086, -94.87043762207031, 0.21728857, 0.14520472, -0.22604084
241, 3555582507, -121.42935943603516, 72.6443099975586, -94.84687805175781, 0.21938154, 0.14725743, -0.2123909
242, 3555599174, -121.38560485839844, 72.64350891113281, -94.8271255493164, 0.20744014, 0.13342391, -0.23528671
243, 3555615841, -121.36563110351562, 72.64083099365234, -94.81859588623047, 0.2663604, 0.1716175, -0.24019432
244, 3555632508, -121.37174224853516, 72.6357192993164, -94.81559753417969, 0.21321973, 0.17967464, -0.18642616
245, 3555649175, -121.40591430664062, 72.6345443725586, -94.80696105957031, 0.1273912, 0.14599124, -0.17691231
246, 3555665842, -121.44975280761719, 72.6352310180664, -94.79729461669922, 0.11898624, 0.09592036, -0.17352676
247, 3555682509, -121.48799896240234, 72.63591003417969, -94.7860336303711, 0.14032993, 0.03984926, -0.18797588
248, 3555699176, -121.52006530761719, 72.63934326171875, -94.79167938232422, 0.1506285, -0.0026024731, -0.18892384
249, 3555715843, -121.53933715820312, 72.63951110839844, -94.81294250488281, 0.15728249, -0.023280103, -0.20397186
250, 3555732510, -121.536376953125, 72.64030456542969, -94.84033203125, 0.19052468, 0.0059398008, -0.19544792
251, 3555749177, -121.53883361816406, 72.64386749267578, -94.86649322509766, 0.19515677, 0.07179831, -0.17695618
252, 3555765844, -121.54444885253906, 72.64616394042969, -94.89581298828125, 0.25209534, 0.15048152, -0.18719482
253, 3555782511, -121.55490112304688, 72.64561462402344, -94.90752410888672, 0.2116149, 0.16825922, -0.19510746
254, 3555799178, -121.56881713867188, 72.64568328857422, -94.89923095703125, 0.15542376, 0.11312946, -0.1994772
255, 3555815845, -121.60249328613281, 72.64266204833984, -94.90135955810547, 0.12894998, 0.07099546, -0.18320084
256, 3555832512, -121.65159606933594, 72.64070892333984, -94.90602111816406, 0.12004389, 0.051073827, -0.21695805
257, 3555849179, -121.68778228759766, 72.63558197021484, -94.89855194091797, 0.10683249, 0.072097175, -0.2685728
258, 3555865846, -121.72071838378906, 72.63019561767578, -94.8916244506836, 0.17569683, 0.09622965, -0.2780695
259, 3555882513, -121.76995086669922, 72.6236572265625, -94.91815185546875, 0.21454965, 0.060305137, -0.22716236
260, 3555899180, -121.80592346191406, 72.61895751953125, -94.94639587402344, 0.24362823, 0.0695638, -0.19501114
261, 3555915847, -121.81940460205078, 72.6153335571289, -94.98371124267578, 0.229023, 0.10848154, -0.18292904
262, 3555932514, -121.83145141601562, 72.60585021972656, -95.02824401855469, 0.179214, 0.17437734, -0.17245483
263, 3555949181, -121.8516845703125, 72.59898376464844, -95.06033325195312, 0.1310747, 0.14492166, -0.11973858
264, 3555965848, -121.87262725830078, 72.60246276855469, -95.06526184082031, 0.08276908, 0.16276868, -0.107821465
265, 3555982515, -121.90614318847656, 72.60643005371094, -95.0711898803711, 0.06559658, 0.09771833, -0.12898636
266, 3555999182, -121.92072296142578, 72.60720825195312, -95.06428527832031, 0.05999445, -0.015317287, -0.16106701
267, 3556015849, -121.92771911621094, 72.60258483886719, -95.07161712646484, 0.0027706665, -0.057674166, -0.17733765
268, 3556032516, -121.92404174804688, 72.59981536865234, -95.07831573486328, 0.07799172, 0.031079337, -0.13565731
269, 3556049183, -121.91058349609375, 72.59947204589844, -95.08138275146484, 0.13908675, 0.13622357, -0.13668919
270, 3556065850, -121.9048080444336, 72.59942626953125, -95.0781478881836, 0.18255956, 0.15044592, -0.14090729
271, 3556082517, -121.9006576538086, 72.59979248046875, -95.07688903808594, 0.19232708, 0.1081112, -0.18905258
272, 3556099184, -121.87382507324219, 72.60398864746094, -95.05636596679688, 0.15085515, 0.021622894, -0.21469021
273, 3556115851, -121.83302307128906, 72.60601043701172, -95.0438003540039, 0.16109696, -0.004661195, -0.22854233
274, 3556132518, -121.79231262207031, 72.60083770751953, -95.04904174804688, 0.15391013, 0.011820986, -0.2654438
275, 3556149185, -121.78408813476562, 72.59049224853516, -95.07955932617188, 0.19380674, 0.037811574, -0.3024521
276, 3556165852, -121.81159973144531, 72.57658386230469, -95.13177490234375, 0.25128758, 0.088545606, -0.31499195
277, 3556182519, -121.89240264892578, 72.55636596679688, -95.19025421142578, 0.293, 0.10825898, -0.26892662
278, 3556199186, -122.01377868652344, 72.53331756591797, -95.26813507080078, 0.29108182, 0.11607335, -0.19904423
279, 3556215853, -122.18346405029297, 72.51091003417969, -95.35684204101562, 0.25890946, 0.11527975, -0.14750862
280, 3556232520, -122.3781509399414, 72.49305725097656, -95.45446014404297, 0.23419553, 0.122691065, -0.121050835
281, 3556249187, -122.5644302368164, 72.47978210449219, -95.56000518798828, 0.17326501, 0.08151861, -0.11908531
282, 3556265854, -122.7169418334961, 72.46712493896484, -95.647705078125, 0.06827069, -0.00511705, -0.105205536
283, 3556282521, -122.83704376220703, 72.4599380493164, -95.74246215820312, -0.012466659, -0.038755078, -0.11824131
284, 3556299188, -122.89933776855469, 72.45747375488281, -95.80624389648438, 0.00262136, 0.003996412, -0.16273117
285, 3556315855, -122.90894317626953, 72.45347595214844, -95.85527038574219, 0.023578381, 0.07440836, -0.1682291
286, 3556332522, -122.89862823486328, 72.44624328613281, -95.9177474975586, 0.04608882, 0.085108176, -0.12564754
287, 3556349189, -122.84611511230469, 72.44532775878906, -95.93289184570312, 0.079205394, 0.096857384, -0.12952232
288, 3556365856, -122.77165222167969, 72.4450912475586, -95.91329193115234, 0.13688113, 0.12586166, -0.19418907
289, 3556382523, -122.7191162109375, 72.44221496582031, -95.88274383544922, 0.21706907, 0.13439666, -0.23001385
290, 3556399190, -122.71888732910156, 72.43034362792969, -95.8733901977539, 0.19730338, 0.112217695, -0.25369358
291, 3556415857, -122.74830627441406, 72.41683959960938, -95.86123657226562, 0.15966201, 0.1342149, -0.17022038
292, 3556432524, -122.80104064941406, 72.40809631347656, -95.84001159667969, 0.15677601, 0.19152246, -0.13210869
293, 3556449191, -122.8671646118164, 72.40582275390625, -95.81159210205078, 0.14976083, 0.081665345, -0.13851833
294, 3556465858, -122.91549682617188, 72.40274810791016, -95.79769134521484, 0.14192134, -0.0501054, -0.19644451
295, 3556482525, -122.9523696899414, 72.39427185058594, -95.8341293334961, 0.07552988, -0.13421784, -0.19458485
296, 3556499192, -122.95231628417969, 72.38307189941406, -95.88841247558594, 0.04031682, -0.14157785, -0.18148708
297, 3556515859, -122.90888977050781, 72.37201690673828, -95.93958282470703, 0.099186555, -0.0591465, -0.2122364
298, 3556532526, -122.8564682006836, 72.36062622070312, -95.99976348876953, 0.14101969, 0.06253183, -0.17566586
299, 3556549193, -122.80004119873047, 72.35087585449219, -96.04122161865234, 0.15375009, 0.17214788, -0.16570091
300, 3556565860, -122.75654602050781, 72.3463363647461, -96.06108093261719, 0.17029586, 0.17848621, -0.20811939
301, 3556582527, -122.75911712646484, 72.34551239013672, -96.10633850097656, 0.17308173, 0.12686774, -0.2250948
302, 3556599194, -122.78681945800781, 72.3424072265625, -96.15161895751953, 0.24242483, 0.084849626, -0.19510174
303, 3556615861, -122.80619812011719, 72.33969116210938, -96.19541931152344, 0.29775727, 0.08926431, -0.17662334
304, 3556632528, -122.81903076171875, 72.33765411376953, -96.22763061523438, 0.2862879, 0.11543195, -0.134058
305, 3556649195, -122.83621215820312, 72.33917999267578, -96.25619506835938, 0.22415355, 0.15576693, -0.121406555
306, 3556665862, -122.85831451416016, 72.34674835205078, -96.27399444580078, 0.15860078, 0.13770188, -0.12994671
307, 3556682529, -122.88642883300781, 72.35659790039062, -96.29904174804688, 0.11569567, 0.072385535, -0.115706444
308, 3556699196, -122.89854431152344, 72.36766052246094, -96.32440185546875, 0.06902393, 0.015502468, -0.14237213
309, 3556715863, -122.88455963134766, 72.3773422241211, -96.35455322265625, 0.09446328, -0.04479124, -0.1860981
310, 3556732530, -122.84222412109375, 72.3807373046875, -96.36598205566406, 0.13724858, -0.046090856, -0.2164669
311, 3556749197, -122.79247283935547, 72.37506103515625, -96.36650848388672, 0.1483733, 0.026391609, -0.1627121
312, 3556765864, -122.73370361328125, 72.36747741699219, -96.34782409667969, 0.24327508, 0.11897631, -0.105566025
313, 3556782531, -122.67938995361328, 72.36217498779297, -96.30815124511719, 0.27029958, 0.18912289, -0.09034157
314, 3556799198, -122.63497924804688, 72.36412811279297, -96.2354507446289, 0.21613479, 0.21195912, -0.13480377
315, 3556815865, -122.60558319091797, 72.37173461914062, -96.16443634033203, 0.1447823, 0.09331585, -0.19730473
316, 3556832532, -122.58062744140625, 72.37593078613281, -96.10437774658203, 0.111692555, -0.086499766, -0.2568407
317, 3556849199, -122.53585052490234, 72.37053680419922, -96.07437133789062, 0.12559462, -0.21962525, -0.30604076
318, 3556865866, -122.46627807617188, 72.36148071289062, -96.0602035522461, 0.1430009, -0.1736724, -0.31017494
319, 3556882533, -122.37431335449219, 72.3515625, -96.04147338867188, 0.17902717, -0.0067879767, -0.3409443
320, 3556899200, -122.28802490234375, 72.34622192382812, -96.00975036621094, 0.24875472, 0.1238953, -0.3289032
321, 3556915867, -122.2229995727539, 72.34334564208984, -95.97687530517578, 0.3285882, 0.20550957, -0.2738371
322, 3556932534, -122.18689727783203, 72.33583068847656, -95.92778015136719, 0.30284083, 0.23719032, -0.17420769
323, 3556949201, -122.19271087646484, 72.32881927490234, -95.87181854248047, 0.26697817, 0.30945778, -0.12125778
324, 3556965868, -122.21630859375, 72.33514404296875, -95.82596588134766, 0.20268244, 0.16574855, -0.08494663
325, 3556982535, -122.21380615234375, 72.34410858154297, -95.76614379882812, 0.114389904, 0.008938255, -0.10525322
326, 3556999202, -122.17596435546875, 72.35456085205078, -95.70913696289062, 0.009155985, -0.033296753, -0.11196041
327, 3557015869, -122.10562896728516, 72.36486053466797, -95.66413879394531, 0.013514123, -0.026280556, -0.14729023
328, 3557032536, -122.00688934326172, 72.3752670288086, -95.61864471435547, 0.027817529, 0.022772115, -0.15231228
329, 3557049203, -121.89276123046875, 72.3843002319336, -95.5645751953125, 0.09719327, 0.099202566, -0.18872643
330, 3557065870, -121.78742218017578, 72.39625549316406, -95.50263977050781, 0.14026064, 0.1873773, -0.24456215
331, 3557082537, -121.71402740478516, 72.40838623046875, -95.46219635009766, 0.21686389, 0.19263802, -0.31441402
332, 3557099204, -121.65879821777344, 72.4180679321289, -95.43062591552734, 0.26496926, 0.11791479, -0.30236244
333, 3557115871, -121.613525390625, 72.42870330810547, -95.38488006591797, 0.23735824, 0.14495608, -0.24717236
334, 3557132538, -121.57925415039062, 72.43952941894531, -95.3384780883789, 0.21235473, 0.14251444, -0.19872665
335, 3557149205, -121.56617736816406, 72.45439147949219, -95.30931091308594, 0.21252908, 0.14762133, -0.15837097
336, 3557165872, -121.56776428222656, 72.47576141357422, -95.28770446777344, 0.16398028, 0.13560724, -0.17282772
337, 3557182539, -121.5735855102539, 72.49748992919922, -95.27140808105469, 0.10141319, 0.07737513, -0.23185825
338, 3557199206, -121.57617950439453, 72.51416778564453, -95.26752471923828, 0.041825086, -2.9227114E-4, -0.2254076
339, 3557215873, -121.56683349609375, 72.52496337890625, -95.27176666259766, 0.030608758, 0.012752448, -0.15896893
340, 3557232540, -121.56214904785156, 72.5351333618164, -95.28375244140625, 0.032706205, 0.057831742, -0.13995361
341, 3557249207, -121.56683349609375, 72.54811096191406, -95.29522705078125, 0.03974284, 0.099981286, -0.16014194
342, 3557265874, -121.57688903808594, 72.5610122680664, -95.29501342773438, 0.023890853, 0.05630364, -0.17512989
343, 3557282541, -121.576416015625, 72.5694351196289, -95.2927017211914, 0.07531621, -0.034524757, -0.22099113
344, 3557299208, -121.55181121826172, 72.57462310791016, -95.2945327758789, 0.06050004, -0.100874305, -0.24797344
345, 3557315875, -121.50833129882812, 72.57540893554688, -95.31542205810547, 0.059656054, -0.023552287, -0.26537228
346, 3557332542, -121.47093963623047, 72.57495880126953, -95.35478973388672, 0.06599041, 0.077921644, -0.2839222
347, 3557349209, -121.44415283203125, 72.57064819335938, -95.40276336669922, 0.15979522, 0.09818024, -0.30428982
348, 3557365876, -121.43427276611328, 72.56086730957031, -95.46495056152344, 0.21325102, 0.048203446, -0.29221153
349, 3557382543, -121.42292785644531, 72.55123138427734, -95.50236511230469, 0.2202984, 0.078991294, -0.33189678
350, 3557399210, -121.42491912841797, 72.53752136230469, -95.53282165527344, 0.20408387, 0.1670956, -0.39198017
351, 3557415877, -121.48621368408203, 72.52085876464844, -95.58556365966797, 0.22453932, 0.2182616, -0.3392229
352, 3557432544, -121.58867645263672, 72.50467681884766, -95.65811157226562, 0.23188932, 0.20097245, -0.23375511
353, 3557449211, -121.6874008178711, 72.49759674072266, -95.71395111083984, 0.19966546, 0.18567841, -0.15960026
354, 3557465878, -121.78684997558594, 72.49713897705078, -95.78433227539062, 0.14476442, 0.13007635, -0.1255722
355, 3557482545, -121.88087463378906, 72.50052642822266, -95.87439727783203, 0.11820706, 0.08522963, -0.10120487
356, 3557499212, -121.96449279785156, 72.50794982910156, -95.97602081298828, 0.1003819, 0.07102658, -0.09637737
357, 3557515879, -122.0389404296875, 72.5170669555664, -96.11028289794922, 0.06616386, 0.06887091, -0.052330017
358, 3557532546, -122.09832000732422, 72.53047943115234, -96.23966217041016, 0.044381626, 0.09293509, -0.077054024
359, 3557549213, -122.15425872802734, 72.54940795898438, -96.35950469970703, 0.05537265, 0.12272758, -0.09307575
360, 3557565880, -122.22203063964844, 72.57080078125, -96.4796371459961, 0.1496629, 0.11868183, -0.10583687
361, 3557582547, -122.2961196899414, 72.59437561035156, -96.60527038574219, 0.19547862, 0.106644735, -0.16623592
362, 3557599214, -122.36518859863281, 72.6214370727539, -96.72232055664062, 0.22386923, 0.115229145, -0.23104572
363, 3557615881, -122.43913269042969, 72.64481353759766, -96.85768127441406, 0.23460546, 0.13011108, -0.24626255
364, 3557632548, -122.50792694091797, 72.66413879394531, -96.98133087158203, 0.24679182, 0.12287954, -0.23827267
365, 3557649215, -122.56291198730469, 72.68579864501953, -97.08059692382812, 0.28077072, 0.06843643, -0.22733402
366, 3557665882, -122.61214447021484, 72.70950317382812, -97.1695785522461, 0.2879705, 0.043234166, -0.19188976
367, 3557682549, -122.64515686035156, 72.73469543457031, -97.24295806884766, 0.21444102, -0.020407822, -0.17725182
368, 3557699216, -122.66500854492188, 72.7597885131836, -97.30109405517578, 0.17253993, 0.0021538825, -0.18492508
369, 3557715883, -122.68156433105469, 72.78372955322266, -97.35887145996094, 0.1684179, -0.00694248, -0.17633057
370, 3557732550, -122.69718170166016, 72.80371856689453, -97.42113494873047, 0.20296586, -0.016640792, -0.15177345
371, 3557749217, -122.71056365966797, 72.81908416748047, -97.46725463867188, 0.22898008, -0.01839548, -0.16759968
372, 3557765884, -122.7265853881836, 72.82569122314453, -97.5230712890625, 0.23702967, -0.035217483, -0.1920805
373, 3557782551, -122.73981475830078, 72.82677459716797, -97.55297088623047, 0.23921698, 0.012822407, -0.18932152
374, 3557799218, -122.76276397705078, 72.82559204101562, -97.55897521972656, 0.25034434, 0.08497189, -0.15304184
375, 3557815885, -122.7888412475586, 72.82689666748047, -97.55078125, 0.26915208, 0.15938567, -0.14140606
376, 3557832552, -122.82295227050781, 72.83045959472656, -97.52772521972656, 0.19813994, 0.16527613, -0.14692688
377, 3557849219, -122.84386444091797, 72.83383178710938, -97.5065689086914, 0.12203137, 0.06186587, -0.17939281
378, 3557865886, -122.86029815673828, 72.83335876464844, -97.5003662109375, 0.12419631, -0.07245091, -0.20796299
379, 3557882553, -122.8592300415039, 72.82937622070312, -97.49752807617188, 0.11381682, -0.104704395, -0.14597893
380, 3557899220, -122.82061004638672, 72.8222885131836, -97.50065612792969, 0.13385119, 0.005040301, -0.1403284
381, 3557915887, -122.791259765625, 72.81737518310547, -97.51227569580078, 0.20410086, 0.12788624, -0.17586136
382, 3557932554, -122.78799438476562, 72.8096694946289, -97.53724670410156, 0.28434426, 0.15220056, -0.15435219
383, 3557949221, -122.8258056640625, 72.79928588867188, -97.59245300292969, 0.25277483, 0.13567759, -0.1489706
384, 3557965888, -122.87156677246094, 72.79354095458984, -97.61360931396484, 0.18918137, 0.12235915, -0.18981838
385, 3557982555, -122.92018127441406, 72.7927017211914, -97.61829376220703, 0.14322576, 0.13073865, -0.21210098
386, 3557999222, -122.98135375976562, 72.79420471191406, -97.6208724975586, 0.112365775, 0.15884858, -0.18143272
387, 3558015889, -123.03531646728516, 72.79720306396484, -97.62035369873047, 0.047613624, 0.09477762, -0.1564579
388, 3558032556, -123.04893493652344, 72.80074310302734, -97.60424041748047, 0.05639366, -0.020789107, -0.21949291
389, 3558049223, -123.04979705810547, 72.793701171875, -97.62755584716797, 0.04500478, -0.12635751, -0.22584343
390, 3558065890, -123.03960418701172, 72.77985382080078, -97.67611694335938, 0.1101749, -0.142046, -0.20201588
391, 3558082557, -123.01863098144531, 72.76575469970703, -97.74523162841797, 0.1649758, -0.024203325, -0.2470417
392, 3558099224, -123.00927734375, 72.75177764892578, -97.81892395019531, 0.21184762, 0.16367693, -0.30287075
393, 3558115891, -123.06555938720703, 72.73573303222656, -97.91339874267578, 0.25696838, 0.24522234, -0.3342266
394, 3558132558, -123.16835021972656, 72.719970703125, -98.00439453125, 0.25363714, 0.22074065, -0.27503872
395, 3558149225, -123.2881088256836, 72.70209503173828, -98.07736206054688, 0.2246712, 0.12616937, -0.27113533
396, 3558165892, -123.41847229003906, 72.6811294555664, -98.15486145019531, 0.18318854, 0.05612156, -0.27268505
397, 3558182559, -123.54719543457031, 72.66190338134766, -98.22926330566406, 0.1707183, 0.07784015, -0.22230148
398, 3558199226, -123.64546966552734, 72.64693450927734, -98.30503845214844, 0.16129902, 0.08762951, -0.14129066
399, 3558215893, -123.69790649414062, 72.63617706298828, -98.34521484375, 0.1378002, 0.09998268, -0.1275034
400, 3558232560, -123.72237396240234, 72.63147735595703, -98.37432861328125, 0.10238503, 0.16762187, -0.11307716
401, 3558249227, -123.74198913574219, 72.62274169921875, -98.41481018066406, 0.0498416, 0.107561305, -0.11111736
402, 3558265894, -123.72135162353516, 72.59464263916016, -98.4461669921875, -0.06500517, -0.003956263, -0.17042542
403, 3558282561, -123.69367218017578, 72.55704498291016, -98.4809341430664, -0.08284284, -0.08301995, -0.1738348
404, 3558299228, -123.669677734375, 72.51305389404297, -98.53787231445312, 0.015654847, -0.05413657, -0.13496113
405, 3558315895, -123.6390609741211, 72.46514892578125, -98.61548614501953, 0.16278046, -0.017384475, -0.11208725
406, 3558332562, -123.56978607177734, 72.4211196899414, -98.65717315673828, 0.24728893, 0.039701406, -0.123705864
407, 3558349229, -123.50035095214844, 72.38624572753906, -98.69501495361328, 0.20008567, 0.17017038, -0.11578083
408, 3558365896, -123.42759704589844, 72.36235809326172, -98.72435760498047, 0.2582488, 0.15090854, -0.17265701
409, 3558382563, -123.37189483642578, 72.33800506591797, -98.7193374633789, 0.29426107, 0.11094954, -0.21349812
410, 3558399230, -123.32842254638672, 72.31271362304688, -98.71334075927734, 0.2549791, 0.0483192, -0.19935036
411, 3558415897, -123.26126861572266, 72.29232788085938, -98.67597961425781, 0.17859758, 0.0890852, -0.23022842
412, 3558432564, -123.19715881347656, 72.27667999267578, -98.62297058105469, 0.12519139, 0.119797945, -0.30656624
413, 3558449231, -123.17073059082031, 72.255126953125, -98.60107421875, 0.13753468, 0.11631737, -0.2986374
414, 3558465898, -123.17626190185547, 72.22219848632812, -98.61505126953125, 0.14984532, 0.07014569, -0.20434952
415, 3558482565, -123.18403625488281, 72.18487548828125, -98.62431335449219, 0.098870955, 0.042363863, -0.12550354
416, 3558499232, -123.15843200683594, 72.1474838256836, -98.61503601074219, 0.09754016, 0.0746697, -0.03785324
417, 3558515899, -123.11676788330078, 72.08853149414062, -98.62201690673828, 0.09961481, 0.09027881, 0.10560036
418, 3558532566, -123.09130859375, 71.9726791381836, -98.66221618652344, -0.12249896, -0.10110206, 0.02552414
419, 3558549233, -123.05330657958984, 71.83245086669922, -98.70560455322266, -0.3610892, -0.20530227, -0.0686245
420, 3558565900, -122.96959686279297, 71.65616607666016, -98.7911376953125, -0.47762752, -0.3618447, 0.019241333
421, 3558582567, -122.81904602050781, 71.45646667480469, -98.92393493652344, -0.36389473, -0.50696266, -0.117679596
422, 3558599234, -122.60222625732422, 71.24980926513672, -99.10050201416016, -0.23610345, -0.54730564, -0.23447227
423, 3558615901, -122.39031219482422, 71.01402282714844, -99.4584732055664, -0.056464735, -0.45341113, -0.41700935
424, 3558632568, -122.42860412597656, 70.68132019042969, -100.27448272705078, -0.047305174, -0.36400795, -0.70874786
425, 3558649235, -122.57767486572266, 70.19823455810547, -101.45311737060547, -0.40777537, -0.29938674, -0.504941
426, 3558665902, -122.19808197021484, 69.734130859375, -102.3350830078125, -0.7154694, -0.57329863, 0.18242168
427, 3558682569, -121.65280151367188, 69.31119537353516, -103.08467102050781, -0.77744645, -1.3609221, 0.44795036
428, 3558699236, -120.8321304321289, 68.85663604736328, -103.63320922851562, -0.41907918, -1.3852264, 0.4940338
429, 3558715903, -119.72257232666016, 68.36163330078125, -103.99211883544922, 0.21540971, -0.8379887, 0.23337936
430, 3558732570, -118.5582504272461, 67.83485412597656, -104.27752685546875, 0.631134, -0.3155825, -0.20783043
431, 3558749237, -117.4756088256836, 67.28429412841797, -104.5440444946289, 0.56661475, 0.123376735, -0.28907394
432, 3558765904, -116.33322143554688, 66.72830200195312, -104.61981964111328, 0.41353294, 0.2655238, -0.029706955
433, 3558782571, -114.98117065429688, 66.17916870117188, -104.28888702392578, 0.4802511, 0.083284594, 0.15487003
434, 3558799238, -113.4703140258789, 65.59748840332031, -103.62362670898438, 0.8468378, 0.047673218, 0.34350014
435, 3558815905, -112.0400390625, 65.02294158935547, -102.81484985351562, 1.1985145, 0.16436675, 0.24873066
436, 3558832572, -110.83592224121094, 64.4921646118164, -102.0403823852539, 0.9135663, 0.24155101, 0.23500729
437, 3558849239, -109.67255401611328, 63.98286437988281, -101.25363159179688, 0.7291095, 0.118549176, -0.06486511
438, 3558865906, -108.53522491455078, 63.46871566772461, -100.50984954833984, 0.6590588, 0.035646677, -0.4123726
439, 3558882573, -107.41092681884766, 62.97877883911133, -99.81684112548828, 0.6838839, 0.28434548, -0.52348995
440, 3558899240, -106.25659942626953, 62.53037643432617, -99.18767547607422, 0.62524176, 0.41227815, -0.44304562
441, 3558915907, -105.02641296386719, 62.10551834106445, -98.55924987792969, 0.5353583, 0.18761691, -0.39147854
442, 3558932574, -103.74292755126953, 61.67884826660156, -97.90130615234375, 0.27155527, -0.0077355877, -0.2636385
443, 3558949241, -102.39930725097656, 61.268341064453125, -97.22879791259766, 0.21128277, -0.14650396, -0.05610752
444, 3558965908, -101.01155090332031, 60.89718246459961, -96.59564971923828, 0.2689451, -0.14678241, -0.051921844
445, 3558982575, -99.5643081665039, 60.56084442138672, -96.00139617919922, 0.19722292, 0.012541605, -0.062226295
446, 3558999242, -98.0754623413086, 60.224700927734375, -95.40708923339844, 0.19701013, 0.19847542, -0.018763542
447, 3559015909, -96.64387512207031, 59.903812408447266, -94.80216979980469, 0.4401967, 0.44204265, -0.060150146
448, 3559032576, -95.33851623535156, 59.6314582824707, -94.17427825927734, 0.7594711, 0.7007754, -0.25142288
449, 3559049243, -94.27316284179688, 59.40177917480469, -93.58463287353516, 0.837153, 0.7300856, -0.52069855
450, 3559065910, -93.35523223876953, 59.203617095947266, -92.9412841796875, 0.624811, 0.75181633, -0.5826473
451, 3559082577, -92.51929473876953, 59.027191162109375, -92.251953125, 0.3965084, 0.68298227, -0.40069962
452, 3559099244, -91.74038696289062, 58.85465621948242, -91.55854034423828, 0.20245357, 0.5743488, -0.15209484
453, 3559115911, -91.01152038574219, 58.70945739746094, -90.90863037109375, 0.09538147, 0.46742553, -0.12836075
454, 3559132578, -90.35359954833984, 58.60550308227539, -90.34178924560547, 0.12016146, 0.3543254, -0.31808567
455, 3559149245, -89.79676818847656, 58.543190002441406, -89.90988159179688, 0.05146788, 0.22966698, -0.4880085
456, 3559165912, -89.27330780029297, 58.48898696899414, -89.54373931884766, 0.02624668, 0.022556983, -0.35842896
457, 3559182579, -88.72433471679688, 58.41777420043945, -89.19816589355469, 0.028830547, -0.04653243, -0.18670273
458, 3559199246, -88.12667846679688, 58.346920013427734, -88.84928894042969, 0.110569626, 0.093994625, -0.25734997
459, 3559215913, -87.57694244384766, 58.30314254760742, -88.50547790527344, 0.33854523, 0.13090956, -0.4719696
460, 3559232580, -87.1563949584961, 58.293922424316406, -88.1876449584961, 0.5283998, 0.1961017, -0.7346935
461, 3559249247, -86.8434829711914, 58.30275344848633, -87.86717224121094, 0.808844, 0.25705785, -0.5264063
462, 3559265914, -86.61248779296875, 58.29343032836914, -87.5589370727539, 0.9195587, 0.19551641, 0.006623268
463, 3559282581, -86.4555435180664, 58.29975509643555, -87.34886169433594, 0.6628889, 0.036187403, 0.07526779
464, 3559299248, -86.36136627197266, 58.393310546875, -87.27265167236328, 0.1520809, -0.02615367, -0.060990334
465, 3559315915, -86.18856811523438, 58.56041717529297, -87.3091812133789, 0.031677596, 0.27349582, -0.24986649
466, 3559332582, -85.8440933227539, 58.79176330566406, -87.28501892089844, 0.44997808, 0.7114537, -0.3860588
467, 3559349249, -85.30598449707031, 59.08396530151367, -86.99960327148438, 0.746825, 1.2577777, -0.65059566
468, 3559365916, -84.61798858642578, 59.41994094848633, -86.43501281738281, 1.14949, 1.7429464, -0.85533047
469, 3559382583, -83.8580093383789, 59.79532241821289, -85.56187438964844, 1.6285937, 1.9336354, -0.64445686
470, 3559399250, -83.12590026855469, 60.218780517578125, -84.44999694824219, 1.7526178, 1.846287, -0.49295998
471, 3559415917, -82.37358093261719, 60.70340347290039, -83.12503814697266, 1.4223714, 1.2535734, -0.36993313
472, 3559432584, -81.57466125488281, 61.177894592285156, -81.60388946533203, 0.9230853, 0.4019299, 0.027265549
473, 3559449251, -80.74224090576172, 61.62443923950195, -80.02130889892578, 0.34609395, -0.4673754, 0.084965706
474, 3559465918, -79.85533905029297, 62.039878845214844, -78.48748016357422, -0.28918105, -1.1447252, 0.11774826
475, 3559482585, -78.85137176513672, 62.44172668457031, -77.0890121459961, -0.65219563, -1.3159603, 0.32556534
476, 3559499252, -77.65110778808594, 62.83716583251953, -75.7859115600586, -0.5834506, -0.90309805, 0.41116524
477, 3559515919, -76.3082504272461, 63.218196868896484, -74.46575927734375, -0.22872081, -0.21691297, 0.2604637
478, 3559532586, -75.03974914550781, 63.595401763916016, -73.10721588134766, 0.34541336, 0.23074217, 0.09178352
479, 3559549253, -73.9832992553711, 63.97149658203125, -71.68121337890625, 0.6877355, 0.5689727, 0.104522705
480, 3559565920, -73.05159759521484, 64.3156509399414, -70.11344146728516, 0.6726149, 0.7385934, 0.10969925
481, 3559582587, -72.18341064453125, 64.63860321044922, -68.4355697631836, 0.512559, 0.7392685, -0.045879364
482, 3559599254, -71.33931732177734, 65.00530242919922, -66.65902709960938, 0.5790126, 0.8722786, -0.64493465
483, 3559615921, -70.37420654296875, 65.4305191040039, -64.75404357910156, 0.7395139, 1.3435069, -1.0427933
484, 3559632588, -69.36290740966797, 65.88299560546875, -62.8554573059082, 0.90287185, 0.87327194, -0.6176548
485, 3559649255, -68.24493408203125, 66.372802734375, -60.90098571777344, 0.4367908, 0.4054932, -0.2980013
486, 3559665922, -66.82005310058594, 66.8545150756836, -58.82828903198242, -0.14734824, 0.4159679, -0.071964264
487, 3559682589, -65.18978881835938, 67.2966537475586, -56.67902755737305, -0.1817728, 0.36795944, 0.008107185
488, 3559699256, -63.60990905761719, 67.74691772460938, -54.4949836730957, 0.62314427, -0.10591064, 0.10623741
489, 3559715923, -62.19915771484375, 68.22981262207031, -52.29936981201172, 0.70395315, 0.35280973, -0.39222813
490, 3559732590, -60.92588806152344, 68.62322998046875, -50.168582916259766, 0.04517641, 0.73505026, -0.23059654
491, 3559749257, -59.76572799682617, 68.88321685791016, -47.93762969970703, 0.15670091, -0.33725375, 0.6274624
492, 3559765924, -58.801605224609375, 69.06311798095703, -45.70479202270508, 0.46312198, -1.6528515, 1.1786594
493, 3559782591, -58.05517578125, 69.19745635986328, -43.61958312988281, 0.30532047, -1.7088172, 0.6705198
494, 3559799258, -57.37277603149414, 69.22187042236328, -41.67143249511719, -0.96298635, -0.8507616, -0.044104576
495, 3559815925, -56.994163513183594, 69.01443481445312, -39.879215240478516, -1.5721933, -0.47795084, 0.4942503
496, 3559832592, -57.01728439331055, 68.62842559814453, -38.212127685546875, -0.70440376, -0.6619769, 0.62064743
497, 3559849259, -57.33403778076172, 68.12918090820312, -36.64813232421875, 0.3682662, -0.54070663, 0.67741966
498, 3559865926, -59.10670852661133, 67.6008529663086, -35.840396881103516, -3.3073072, 1.8790634, -2.309937
499, 3559882593, -61.84917449951172, 67.5288314819336, -34.8837890625, -1.8182602, 7.7834606, -3.6617713
500, 3559899260, -62.47154235839844, 67.8630142211914, -33.38078308105469, -3.429839, -6.8266892, 1.2577105
501, 3559915927, -63.649654388427734, 67.1746826171875, -34.707862854003906, 0.7578808, -14.397596, 0.5250139
502, 3559932594, -64.40691375732422, 66.56829833984375, -35.88821029663086, 0.6451679, -5.841634, 0.4165802
503, 3559949261, -63.43659210205078, 66.63230895996094, -36.94434356689453, -0.47877815, 1.6376967, 1.8560162
504, 3559965928, -61.533470153808594, 66.511474609375, -37.81974792480469, -0.49641868, 1.704295, 0.4583702
505, 3559982595, -60.3916130065918, 66.13522338867188, -38.629241943359375, 1.8465995, 3.4256084, -1.8764081
506, 3559999262, -60.36892318725586, 65.80045318603516, -39.30963134765625, 2.411327, 4.4936237, -1.2322092
507, 3560015929, -60.65089797973633, 65.564697265625, -39.257442474365234, 1.6502862, 4.2059097, -0.4188509
508, 3560032596, -60.95863342285156, 65.23822784423828, -38.63976287841797, 0.52327377, 3.1855147, -1.0046167
509, 3560049263, -61.521331787109375, 64.86424255371094, -37.969581604003906, 0.265005, 1.0254765, -0.85711956
510, 3560065930, -62.218849182128906, 64.6180191040039, -37.4676513671875, -0.43008184, -0.59937054, -0.3056984
511, 3560082597, -62.62512969970703, 64.5117416381836, -37.070159912109375, -1.1129935, -1.5073506, -0.050866127
512, 3560099264, -62.660926818847656, 64.50303649902344, -36.84876251220703, -1.1596187, -1.9256039, 0.00653553
513, 3560115931, -62.34784698486328, 64.58611297607422, -36.82890701293945, -0.6671473, -1.4553766, -0.0356369
514, 3560132598, -61.85441970825195, 64.73936462402344, -37.025390625, -0.07178521, -0.75392026, -0.13319397
515, 3560149265, -61.4205436706543, 64.908935546875, -37.394775390625, 0.13366745, 0.018690433, -0.30788994
516, 3560165932, -61.15042495727539, 65.05272674560547, -37.75298309326172, 0.32296595, 0.93702006, -0.3385496
517, 3560182599, -61.14853286743164, 65.1010971069336, -37.974830627441406, 0.46624893, 1.1903169, -0.18380451
518, 3560199266, -61.4368896484375, 65.04601287841797, -38.07297897338867, 0.5026109, 0.8306572, 0.019197464
519, 3560215933, -61.90746307373047, 64.94074249267578, -38.07672882080078, 0.43881047, 0.11801339, 0.01567173
520, 3560232600, -62.4982795715332, 64.85332489013672, -38.12723159790039, 0.20034853, -0.39447093, -0.16523743
521, 3560249267, -63.09002685546875, 64.79523468017578, -38.26119613647461, -0.12647526, -0.57907313, -0.25828743
522, 3560265934, -63.55323028564453, 64.74561309814453, -38.441001892089844, -0.21136798, -0.6677796, -0.22566128
523, 3560282601, -63.836204528808594, 64.70541381835938, -38.6396598815918, 0.13869515, -0.59054786, -0.14410496
524, 3560299268, -63.92844772338867, 64.67729187011719, -38.85254669189453, 0.29014888, -0.28437263, -0.12895775
525, 3560315935, -63.924110412597656, 64.66239929199219, -39.09187698364258, 0.10979895, 0.00933731, -0.25958538
526, 3560332602, -63.91752624511719, 64.64350128173828, -39.34995651245117, 0.22976908, 0.23006463, -0.307683
527, 3560349269, -63.9554328918457, 64.60359954833984, -39.58092498779297, 0.2918471, 0.27095616, -0.25024986
528, 3560365936, -64.04717254638672, 64.52392578125, -39.74901580810547, 0.0955956, 0.20561661, -0.13917351
529, 3560382603, -64.21598815917969, 64.41655731201172, -39.89250183105469, -0.05837175, 0.15237738, -0.32135582
530, 3560399270, -64.50216674804688, 64.3077392578125, -40.09807586669922, 0.05781833, 0.035965748, -0.46434498
531, 3560415937, -64.87884521484375, 64.19134521484375, -40.458248138427734, 0.12824324, -0.2241037, -0.3185501
532, 3560432604, -65.22132110595703, 64.05006408691406, -40.9458122253418, -0.08567296, -0.67403394, -0.36939907
533, 3560449271, -65.56793212890625, 63.88130569458008, -41.602943420410156, -0.58676577, -0.9783694, -0.5013628
534, 3560465938, -65.9448471069336, 63.68675231933594, -42.465850830078125, -0.70893574, -1.1565113, -0.51448727
535, 3560482605, -66.46732330322266, 63.47837829589844, -43.61328887939453, -1.3604357, -1.367895, -0.64295006
536, 3560499272, -67.18867492675781, 63.25723648071289, -44.99245834350586, -1.9248127, -1.122816, -0.8890343
537, 3560515939, -68.09357452392578, 63.062774658203125, -46.54823303222656, -2.0513332, -0.53605145, -0.9494438
538, 3560532606, -69.19546508789062, 62.9139404296875, -48.325897216796875, -1.7785103, -0.24777159, -0.7948971
539, 3560549273, -70.3793716430664, 62.790428161621094, -50.26380157470703, -1.5772275, -0.5449766, -0.5376177
540, 3560565940, -71.55268859863281, 62.67529296875, -52.3931770324707, -1.6705084, -0.9740782, -0.47770023
541, 3560582607, -72.85823059082031, 62.58121109008789, -54.92277145385742, -1.388702, -1.4677529, -0.45505714
542, 3560599274, -74.38681030273438, 62.51890182495117, -57.96964645385742, -1.512756, -1.3364799, -0.43072605
543, 3560615941, -76.09147644042969, 62.45735549926758, -61.45033264160156, -1.4007521, -1.0831767, -0.22506332
544, 3560632608, -77.87999725341797, 62.33077621459961, -65.2141342163086, -1.4157127, -0.35634145, -0.0525465
545, 3560649275, -79.78022766113281, 62.08060836791992, -69.22833251953125, -0.9748567, 0.56425285, 0.1522255
546, 3560665942, -81.67970275878906, 61.67682647705078, -73.18236541748047, -0.16111216, 1.0521725, 0.47203445
547, 3560682609, -83.46358489990234, 61.16481018066406, -76.83296203613281, 0.38352677, 1.1104993, 0.5243492
548, 3560699276, -85.3437271118164, 60.60697937011719, -80.31859588623047, 1.1487247, 0.42158934, 0.40018463
549, 3560715943, -87.36784362792969, 60.03041076660156, -83.74824523925781, 0.66352326, 0.5130532, 0.19834328
550, 3560732610, -89.304443359375, 59.35765075683594, -87.03107452392578, 0.40265992, 1.4097478, 0.4357462
551, 3560749277, -90.95328521728516, 58.61025619506836, -89.93480682373047, 1.3640021, 1.904372, 0.53772736
552, 3560765944, -92.42109680175781, 57.89865493774414, -92.28782653808594, 2.4427435, 1.5490546, 0.22287464
553, 3560782611, -93.9403305053711, 57.284576416015625, -94.20724487304688, 2.2305486, 1.1260315, -0.2744627
554, 3560799278, -95.56625366210938, 56.75309371948242, -95.90324401855469, 1.7425951, 1.0100083, -0.6522589
555, 3560815945, -97.24373626708984, 56.263267517089844, -97.52488708496094, 1.6296098, 1.3091079, -0.65719986
556, 3560832612, -98.8006591796875, 55.825199127197266, -98.91656494140625, 1.9453897, 1.3571358, -0.46843243
557, 3560849279, -100.2632064819336, 55.50178527832031, -100.00251770019531, 2.2169576, 1.0107509, -0.3731928
558, 3560865946, -101.61579132080078, 55.35171890258789, -100.80864715576172, 1.7701262, 1.0704978, -0.30936623
559, 3560882613, -102.80905151367188, 55.32267379760742, -101.48991394042969, 1.6954755, 1.0592324, -0.20967293
560, 3560899280, -103.67430877685547, 55.38810348510742, -101.96817016601562, 1.9365056, 0.7881732, -0.13553047
561, 3560915947, -104.34201049804688, 55.54292678833008, -102.34907531738281, 1.5803546, 0.2486998, -0.32229137
562, 3560932614, -105.01127624511719, 55.734249114990234, -102.8263168334961, 1.0037944, 0.100310504, -0.5164499
563, 3560949281, -105.6060562133789, 55.96588897705078, -103.32577514648438, 0.75148433, 0.011603521, -0.33325863
564, 3560965948, -105.9788818359375, 56.248741149902344, -103.6999740600586, 0.71000814, -0.030537682, 0.030094147
565, 3560982615, -106.15058135986328, 56.57664108276367, -103.95415496826172, 1.0196513, -0.022460328, 0.16565228
566, 3560999282, -106.1596450805664, 56.972816467285156, -104.06558990478516, 1.1230639, -0.09032717, 0.13415623
567, 3561015949, -106.05682373046875, 57.4465217590332, -104.01519775390625, 1.0411291, -0.19404344, 0.037075996
568, 3561032616, -105.93849182128906, 57.96693420410156, -103.89749145507812, 1.0918968, -0.29308125, -0.14847183
569, 3561049283, -105.83439636230469, 58.503761291503906, -103.71687316894531, 1.0041248, -0.26560572, -0.19078922
570, 3561065950, -105.68877410888672, 59.06035232543945, -103.38099670410156, 0.97251695, -0.07428673, -0.17145443
571, 3561082617, -105.52973937988281, 59.63292694091797, -102.89514923095703, 0.98459077, 0.12917005, -0.34416485
572, 3561099284, -105.37181091308594, 60.218624114990234, -102.25049591064453, 0.9136984, 0.38234836, -0.3026142
573, 3561115951, -105.23594665527344, 60.82697296142578, -101.43108367919922, 0.7880294, 0.37525457, -0.2014389
574, 3561132618, -105.14591979980469, 61.468021392822266, -100.49298858642578, 0.5787265, 0.2322617, -0.15232849
575, 3561149285, -105.06707000732422, 62.13948440551758, -99.48683166503906, 0.35218847, 0.08686568, -0.1254921
576, 3561165952, -104.99060821533203, 62.82667541503906, -98.47954559326172, 0.21530467, 0.052811787, 0.054836273
577, 3561182619, -104.93895721435547, 63.47364044189453, -97.53917694091797, -0.06256932, -8.2263944E-4, 0.097029686
578, 3561199286, -105.01881408691406, 64.09284210205078, -96.74986267089844, -0.40289015, 0.019606179, -0.21373749
579, 3561215953, -105.25003051757812, 64.6740493774414, -96.14173889160156, -0.70762056, 0.349454, -0.29175186
580, 3561232620, -105.72007751464844, 65.25698852539062, -95.71923065185547, -0.86641353, 0.46661335, -0.23003387
581, 3561249287, -106.50113677978516, 65.86077880859375, -95.49752044677734, -0.9483404, 0.6448032, -0.15398407
582, 3561265954, -107.49935150146484, 66.45604705810547, -95.3895263671875, -1.0191945, 0.6158213, -0.15757751
583, 3561282621, -108.65863800048828, 67.0262451171875, -95.38925170898438, -1.1494949, 0.391714, -0.044031143
584, 3561299288, -109.99980163574219, 67.55998992919922, -95.6187744140625, -1.1376693, 0.031221785, 0.01952076
585, 3561315955, -111.49052429199219, 68.04692077636719, -96.0182876586914, -0.86177164, -0.06006243, -0.0084095
586, 3561332622, -113.04615783691406, 68.47572326660156, -96.42359924316406, -0.6058699, -0.16417399, -0.045510292
587, 3561349289, -114.6329116821289, 68.87370300292969, -96.85005187988281, -0.42000884, -0.5238988, 0.072668076
588, 3561365956, -116.17355346679688, 69.22903442382812, -97.32225036621094, -0.2566921, -0.7522581, 0.116309166
589, 3561382623, -117.60259246826172, 69.53179168701172, -97.83826446533203, -0.042362858, -1.0413564, 0.08708668
590, 3561399290, -118.89744567871094, 69.7811050415039, -98.40210723876953, 0.22391394, -1.0995111, 0.034542084
591, 3561415957, -120.05818176269531, 69.98027801513672, -98.99249267578125, 0.42769203, -0.8740344, -0.070085526
592, 3561432624, -121.13941955566406, 70.13845825195312, -99.59500885009766, 0.62089354, -0.3750954, -0.024889946
593, 3561449291, -122.142578125, 70.30786895751953, -100.15045928955078, 0.8145988, -0.037234966, -0.06480408
594, 3561465958, -123.0823745727539, 70.51220703125, -100.62972259521484, 0.96135294, 0.19509724, -0.06219387
595, 3561482625, -123.92381286621094, 70.73526000976562, -100.94822692871094, 0.99832284, 0.05974208, -0.086704254
596, 3561499292, -124.54084014892578, 70.97088623046875, -100.979736328125, 0.984647, -0.26084268, -0.16978264
597, 3561515959, -124.86666107177734, 71.185791015625, -100.77963256835938, 0.8666934, -0.7447953, -0.22033024
598, 3561532626, -125.024658203125, 71.3316421508789, -100.5528335571289, 0.3604294, -1.3110923, -0.08738041
599, 3561549293, -125.0157699584961, 71.39118194580078, -100.36302185058594, -0.29345194, -1.7411921, -0.06252861
600, 3561565960, -124.80242156982422, 71.347900390625, -100.20133209228516, -0.7884817, -1.9445493, -0.10657978
601, 3561582627, -124.35514068603516, 71.24005889892578, -100.05432891845703, -0.7375677, -1.5323247, -0.06353474
602, 3561599294, -123.67327880859375, 71.0920181274414, -99.81693267822266, -0.4373107, -0.6548759, -0.15032768
603, 3561615961, -122.98506927490234, 70.89599609375, -99.55574035644531, -0.2621073, 0.19682987, -0.30321407
604, 3561632628, -122.46473693847656, 70.65690612792969, -99.32394409179688, -0.09205068, 0.75360537, -0.2814741
605, 3561649295, -122.07283020019531, 70.39593505859375, -99.06265258789062, 0.10965456, 0.72077394, -0.12982273
606, 3561665962, -121.787109375, 70.1531753540039, -98.81143951416016, 0.24109985, 0.43490446, 0.006709099
607, 3561682629, -121.54398345947266, 69.94625091552734, -98.59925842285156, 0.360243, 0.27447006, 0.04353428
608, 3561699296, -121.34950256347656, 69.77619934082031, -98.43647003173828, 0.38300866, 0.33247212, -0.025006294
609, 3561715963, -121.19219970703125, 69.63927459716797, -98.28643035888672, 0.37272573, 0.39718807, -0.046797752
610, 3561732630, -121.01162719726562, 69.53334045410156, -98.0792465209961, 0.3704982, 0.35075143, -0.09407616
611, 3561749297, -120.84835815429688, 69.46041870117188, -97.86577606201172, 0.33111164, 0.33980584, -0.18048954
612, 3561765964, -120.73040008544922, 69.40416717529297, -97.70663452148438, 0.22880082, 0.27634624, -0.23934555
613, 3561782631, -120.64249420166016, 69.36279296875, -97.61820220947266, 0.1705824, 0.18107818, -0.22253609
614, 3561799298, -120.59231567382812, 69.35240173339844, -97.61394500732422, 0.18619479, 0.118243575, -0.23609161
615, 3561815965, -120.54811096191406, 69.3665542602539, -97.66205596923828, 0.1927701, 0.15828992, -0.31204128
616, 3561832632, -120.51765441894531, 69.39460754394531, -97.7423095703125, 0.2143829, 0.26928398, -0.36581993
617, 3561849299, -120.53804779052734, 69.43145751953125, -97.84452056884766, 0.23939131, 0.38628823, -0.37113667
618, 3561865966, -120.60552978515625, 69.48392486572266, -97.9179916381836, 0.27626604, 0.41675013, -0.34153938
619, 3561882633, -120.69129180908203, 69.55778503417969, -97.92091369628906, 0.22232841, 0.30362332, -0.27165794
620, 3561899300, -120.79338836669922, 69.65615844726562, -97.8647689819336, 0.15062001, 0.20732765, -0.26225758
621, 3561915967, -120.93296813964844, 69.77574157714844, -97.80877685546875, 0.11480966, 0.15700947, -0.26283073
622, 3561932634, -121.0998306274414, 69.901611328125, -97.7892074584961, 0.029958336, 0.07354135, -0.28324986
623, 3561949301, -121.28794860839844, 70.03096008300781, -97.80493927001953, 0.018221224, 0.04439012, -0.24682045
624, 3561965968, -121.4758071899414, 70.16180419921875, -97.81354522705078, 0.039001223, 0.023384176, -0.22700882
625, 3561982635, -121.64513397216797, 70.2970199584961, -97.81265258789062, 0.16787969, -0.0066246167, -0.21401215
626, 3561999302, -121.79286193847656, 70.44869995117188, -97.84303283691406, 0.3470763, -0.033357352, -0.21641731
627, 3562015969, -121.86725616455078, 70.58767700195312, -97.89102172851562, 0.24909088, -0.29840773, -0.2391262
628, 3562032636, -121.8042984008789, 70.66983795166016, -97.9220199584961, -0.0995558, -0.7400873, -0.2219944
629, 3562049303, -121.64559173583984, 70.65415954589844, -97.9577407836914, -0.5173006, -1.0685664, -0.25013542
630, 3562065970, -121.45658111572266, 70.56362915039062, -98.01724243164062, -0.6249825, -0.93454856, -0.23066998
631, 3562082637, -121.27999877929688, 70.4649887084961, -98.10054016113281, -0.36365467, -0.31362316, -0.17579937
632, 3562099304, -121.1343765258789, 70.37382507324219, -98.17581176757812, 0.0015408983, 0.2761811, -0.17387772
633, 3562115971, -121.05823516845703, 70.268310546875, -98.22174072265625, 0.22809541, 0.5188106, -0.19337082
634, 3562132638, -121.01551818847656, 70.15692138671875, -98.1786880493164, 0.282224, 0.50626004, -0.19432926
635, 3562149305, -121.03307342529297, 70.06060791015625, -98.086669921875, 0.34513083, 0.36451185, -0.20650578
636, 3562165972, -121.11643981933594, 69.99363708496094, -97.99159240722656, 0.38679546, 0.19589701, -0.138443
637, 3562182639, -121.23579406738281, 69.95040893554688, -97.92195129394531, 0.4429249, 0.011336549, -0.07444
638, 3562199306, -121.32394409179688, 69.93113708496094, -97.87815856933594, 0.4177703, -0.101356335, -0.04644394
639, 3562215973, -121.33924102783203, 69.92843627929688, -97.86140441894531, 0.36672217, -0.079719335, -0.05864525
640, 3562232640, -121.30692291259766, 69.93672180175781, -97.87666320800781, 0.2618356, 0.015291778, -0.17115498
641, 3562249307, -121.28185272216797, 69.95684051513672, -97.93185424804688, 0.22573155, 0.12381858, -0.23649406
642, 3562265974, -121.26524353027344, 69.9854965209961, -97.9973373413086, 0.19712502, 0.11507335, -0.26721573
643, 3562282641, -121.23638153076172, 70.02391052246094, -98.04083251953125, 0.193045, 0.02956389, -0.26533985
644, 3562299308, -121.1919937133789, 70.06336212158203, -98.05506896972656, 0.18806961, -0.0032057066, -0.18199825
645, 3562315975, -121.13463592529297, 70.0981674194336, -98.04405975341797, 0.17110543, -0.06923345, -0.13539982
646, 3562332642, -121.08447265625, 70.12861633300781, -98.01841735839844, 0.053296663, -0.07669623, -0.13716698
647, 3562349309, -121.057373046875, 70.1529769897461, -97.98991394042969, 0.012083557, -0.049928296, -0.17229939
648, 3562365976, -121.04973602294922, 70.16352081298828, -97.9501953125, -0.03575626, -0.104795694, -0.25885582
649, 3562382643, -121.07088470458984, 70.16065216064453, -97.9303970336914, -0.006328099, -0.13283522, -0.27347088
650, 3562399310, -121.09014129638672, 70.14315032958984, -97.91261291503906, -8.073288E-4, -0.14660011, -0.25798225
651, 3562415977, -121.08815002441406, 70.12004852294922, -97.88690948486328, 0.068926476, -0.13222817, -0.23448849
652, 3562432644, -121.07123565673828, 70.09552001953125, -97.85908508300781, 0.10678674, -0.06467241, -0.20821285
653, 3562449311, -121.04776763916016, 70.07600402832031, -97.82730865478516, 0.10909444, -0.014395128, -0.23049545
654, 3562465978, -121.00845336914062, 70.05870819091797, -97.7830810546875, 0.062305577, 0.0024081846, -0.24525261
655, 3562482645, -120.9570541381836, 70.04595184326172, -97.74102783203125, 0.053432114, 0.038690455, -0.26139927
656, 3562499312, -120.90544128417969, 70.03348541259766, -97.70964813232422, 0.10109491, 0.078523345, -0.26836014
657, 3562515979, -120.84307861328125, 70.02503967285156, -97.6627197265625, 0.10391788, 0.08265235, -0.20359135
658, 3562532646, -120.78445434570312, 70.0223617553711, -97.60606384277344, 0.07480711, 0.07097017, -0.21094227
659, 3562549313, -120.73973846435547, 70.0266342163086, -97.57042694091797, 0.07084511, 0.08820441, -0.22684383
660, 3562565980, -120.69503021240234, 70.03649139404297, -97.5472412109375, 0.06102485, 0.07314417, -0.22756672
661, 3562582647, -120.66674041748047, 70.04508972167969, -97.54936218261719, 0.086212076, 0.07562611, -0.16912651
662, 3562599314, -120.6498031616211, 70.05525970458984, -97.56800842285156, 0.06412721, 0.057722334, -0.15425014
663, 3562615981, -120.64161682128906, 70.06844329833984, -97.60123443603516, 0.051615845, 0.03849639, -0.168993
664, 3562632648, -120.65540313720703, 70.08405303955078, -97.66338348388672, 0.06412497, -0.023550583, -0.19147491
665, 3562649315, -120.6825180053711, 70.0977554321289, -97.73989868164062, 0.06552416, -0.0030804835, -0.19220352
666, 3562665982, -120.70777893066406, 70.10729217529297, -97.8101577758789, 0.10205691, 0.020427631, -0.22699165
667, 3562682649, -120.74187469482422, 70.1146469116211, -97.87891387939453, 0.15440856, 0.025201868, -0.1883421
668, 3562699316, -120.7973861694336, 70.12085723876953, -97.9557113647461, 0.20587526, -0.03621307, -0.13117886
669, 3562715983, -120.84813690185547, 70.12332916259766, -98.02019500732422, 0.21887954, -0.05022716, -0.0856123
670, 3562732650, -120.8716049194336, 70.13197326660156, -98.05142974853516, 0.23438373, -0.042735845, -0.047359467
671, 3562749317, -120.87049865722656, 70.14588165283203, -98.05850982666016, 0.20536058, -0.04820828, -0.066197395
672, 3562765984, -120.8575210571289, 70.16091918945312, -98.057861328125, 0.21037844, -0.071354166, -0.13914585
673, 3562782651, -120.81539154052734, 70.1736068725586, -98.03272247314453, 0.1918528, -0.11369984, -0.1829462
674, 3562799318, -120.75305938720703, 70.18325805664062, -97.99996185302734, 0.20792829, -0.10290919, -0.22518826
675, 3562815985, -120.67455291748047, 70.18812561035156, -97.96121978759766, 0.21105658, -0.10157253, -0.27280712
676, 3562832652, -120.61123657226562, 70.18788146972656, -97.92991638183594, 0.19549382, -0.053123415, -0.23921204
677, 3562849319, -120.55375671386719, 70.18719482421875, -97.8905258178711, 0.16532181, 0.020846328, -0.18821144
678, 3562865986, -120.50599670410156, 70.19232940673828, -97.84634399414062, 0.11519321, 0.06196556, -0.23818398
679, 3562882653, -120.47639465332031, 70.1926040649414, -97.80493927001953, 0.09393847, 0.04924102, -0.2972021
680, 3562899320, -120.47193145751953, 70.18335723876953, -97.77621459960938, 0.0828643, 0.011109879, -0.2697134
681, 3562915987, -120.47239685058594, 70.16685485839844, -97.75389862060547, 0.073701166, 0.04330826, -0.17398357
682, 3562932654, -120.46600341796875, 70.15359497070312, -97.7325668334961, 0.07105388, 0.042354923, -0.14233494
683, 3562949321, -120.46320343017578, 70.14533996582031, -97.71246337890625, 0.07339584, 0.07353196, -0.16030788
684, 3562965988, -120.45572662353516, 70.14115142822266, -97.69945526123047, 0.043468874, 0.10206836, -0.1514597
685, 3562982655, -120.44768524169922, 70.1446533203125, -97.69744873046875, 0.0022400469, 0.09407587, -0.21432209
686, 3562999322, -120.45520782470703, 70.1510238647461, -97.72638702392578, 0.051138423, 0.034453962, -0.25872326
687, 3563015989, -120.4798812866211, 70.1555404663086, -97.7886734008789, 0.10281641, -0.037879746, -0.28603363
688, 3563032656, -120.51478576660156, 70.15546417236328, -97.8819580078125, 0.14790031, -0.051521663, -0.26477528
689, 3563049323, -120.55778503417969, 70.15029907226562, -97.99925231933594, 0.15493381, 0.032042064, -0.2224226
690, 3563065990, -120.60603332519531, 70.14656829833984, -98.12399291992188, 0.18273748, 0.116896324, -0.162426
691, 3563082657, -120.66292572021484, 70.1442642211914, -98.2397689819336, 0.2049502, 0.09364081, -0.11743832
692, 3563099324, -120.71198272705078, 70.14618682861328, -98.32073974609375, 0.1941581, 0.059177067, -0.09130955
693, 3563115991, -120.78680419921875, 70.15278625488281, -98.40825653076172, 0.15206927, 0.0330669, -0.10038757
694, 3563132658, -120.85797119140625, 70.16085052490234, -98.48674011230469, 0.10439038, -0.029626641, -0.11960411
695, 3563149325, -120.89936065673828, 70.1698226928711, -98.54666900634766, 0.11577614, -0.026625898, -0.15074444
696, 3563165992, -120.92220306396484, 70.1767807006836, -98.59552001953125, 0.16318949, -0.054702587, -0.18147564
697, 3563182659, -120.9382095336914, 70.18058013916016, -98.63783264160156, 0.16493513, -0.015319634, -0.21561527
698, 3563199326, -120.93054962158203, 70.18640899658203, -98.65605926513672, 0.1537863, -0.0052131047, -0.25342846
699, 3563215993, -120.91349029541016, 70.1889877319336, -98.66177368164062, 0.14972417, 0.018833984, -0.2530527
700, 3563232660, -120.88887023925781, 70.18414306640625, -98.66170501708984, 0.1418212, -0.03454088, -0.2390356
701, 3563249327, -120.85366821289062, 70.17435455322266, -98.65819549560547, 0.13388918, -0.05086785, -0.20499897
702, 3563265994, -120.80976104736328, 70.16075897216797, -98.65068054199219, 0.110391706, -0.025357153, -0.15777493
703, 3563282661, -120.76667785644531, 70.14485931396484, -98.63584899902344, 0.111030504, -0.022376915, -0.09103966
704, 3563299328, -120.70674133300781, 70.13422393798828, -98.59236145019531, 0.16845948, -0.022419188, -0.030225754
705, 3563315995, -120.6492691040039, 70.12702178955078, -98.5363998413086, 0.18522519, 0.028039085, -0.0058059692
706, 3563332662, -120.6129150390625, 70.12356567382812, -98.48204040527344, 0.0800239, 0.037384108, -0.06350994
707, 3563349329, -120.58977508544922, 70.11881256103516, -98.44055938720703, 0.0047854125, -0.006233609, -0.12713051
708, 3563365996, -120.57554626464844, 70.11235046386719, -98.41449737548828, 0.08262112, -0.07982816, -0.16878796
709, 3563382663, -120.58412170410156, 70.10540771484375, -98.40931701660156, 0.14456192, -0.107532784, -0.19827366
710, 3563399330, -120.59386444091797, 70.09720611572266, -98.41309356689453, 0.1599879, -0.08309033, -0.27093887
711, 3563415997, -120.61676788330078, 70.08475494384766, -98.44223022460938, 0.20541959, -0.059054695, -0.26899338
712, 3563432664, -120.64298248291016, 70.06744384765625, -98.47820281982422, 0.24290316, 0.0023150076, -0.25288296
713, 3563449331, -120.66703796386719, 70.04651641845703, -98.50112915039062, 0.25726923, 0.0052929823, -0.2025528
714, 3563465998, -120.69898986816406, 70.0293960571289, -98.52452850341797, 0.23818837, -0.030919582, -0.1963396
715, 3563482665, -120.74085998535156, 70.01569366455078, -98.56053924560547, 0.22169356, -0.05329767, -0.19241619
716, 3563499332, -120.77256774902344, 69.9999771118164, -98.5929183959961, 0.21951386, -0.09093742, -0.15670776
717, 3563515999, -120.79558563232422, 69.98819732666016, -98.62477111816406, 0.22381513, -0.10839012, -0.14529324
718, 3563532666, -120.7958984375, 69.97748565673828, -98.64142608642578, 0.20312947, -0.0439075, -0.14019203
719, 3563549333, -120.78697967529297, 69.95890808105469, -98.64688873291016, 0.20948483, -0.039144244, -0.19796658
720, 3563566000, -120.79401397705078, 69.9298324584961, -98.65270233154297, 0.29133707, -0.062037, -0.106004715
721, 3563582667, -120.80614471435547, 69.88938903808594, -98.65325164794922, 0.3595644, -0.055883016, 0.012874603
722, 3563599334, -120.77996826171875, 69.84585571289062, -98.61275482177734, 0.26454368, 0.004079251, 2.7179718E-4
723, 3563616001, -120.73274993896484, 69.80906677246094, -98.55420684814453, 0.057337333, 0.020211102, -0.15342808
724, 3563632668, -120.68730926513672, 69.78384399414062, -98.49895477294922, -0.09165327, -0.042122833, -0.36631107
725, 3563649335, -120.65129089355469, 69.76458740234375, -98.45164489746094, -0.0019557383, -0.16259442, -0.42928123
726, 3563666002, -120.58837127685547, 69.7498550415039, -98.39155578613281, 0.12527946, -0.24668756, -0.33713722
727, 3563682669, -120.49419403076172, 69.73600769042969, -98.34893035888672, 0.16091815, -0.23606701, -0.2423935
728, 3563699336, -120.38655090332031, 69.72576904296875, -98.3364028930664, 0.13975103, -0.099276714, -0.23344898
729, 3563716003, -120.27033233642578, 69.7256088256836, -98.31900787353516, 0.13580379, 0.17210375, -0.2500534
730, 3563732670, -120.18199157714844, 69.73686218261719, -98.28472137451172, 0.1388771, 0.3234922, -0.26397228
731, 3563749337, -120.1283187866211, 69.75322723388672, -98.23192596435547, 0.19032843, 0.23452346, -0.14114857
732, 3563766004, -120.09058380126953, 69.77079010009766, -98.1673812866211, 0.18474954, 0.03486235, -0.012993813
733, 3563782671, -120.04813385009766, 69.79244232177734, -98.10189819335938, 0.13065918, -0.011877101, 0.1278019
734, 3563799338, -119.97868347167969, 69.82063293457031, -98.02093505859375, 0.049427208, 0.13042603, 0.17829704
735, 3563816005, -119.90045928955078, 69.86659240722656, -97.93273162841797, -0.07319245, 0.217047, 0.10240364
736, 3563832672, -119.77650451660156, 69.91669464111328, -97.79109191894531, -0.15370673, 0.20158477, -0.028605461
737, 3563849339, -119.59461975097656, 69.96056365966797, -97.5909652709961, -0.26958567, 0.0057264296, -0.123355865
738, 3563866006, -119.35179138183594, 69.99962615966797, -97.3802719116211, -0.28086907, -0.13279527, -0.23343945
739, 3563882673, -119.09829711914062, 70.01647186279297, -97.23684692382812, -0.22203465, -0.31621435, -0.36398792
740, 3563899340, -118.85078430175781, 70.00513458251953, -97.17485809326172, -0.11621154, -0.38376966, -0.41620827
741, 3563916007, -118.6440200805664, 69.96814727783203, -97.21892547607422, -0.01890249, -0.322945, -0.42980385
742, 3563932674, -118.48123168945312, 69.90645599365234, -97.34651184082031, 0.19039415, -0.20003703, -0.4526844
743, 3563949341, -118.3896255493164, 69.82269287109375, -97.52241516113281, 0.4033354, -0.054327395, -0.3668995
744, 3563966008, -118.36178588867188, 69.72979736328125, -97.67974853515625, 0.5867331, 0.123067744, -0.16051579
745, 3563982675, -118.3749008178711, 69.64649200439453, -97.75833892822266, 0.6469663, 0.20657839, -0.027831078
746, 3563999342, -118.38066101074219, 69.58631896972656, -97.70653533935547, 0.55932957, 0.2164833, -0.020885468
747, 3564016009, -118.36640167236328, 69.55359649658203, -97.54360961914062, 0.31092352, 0.23993367, -0.101023674
748, 3564032676, -118.3414306640625, 69.54069519042969, -97.34359741210938, 0.11929959, 0.14305997, -0.22458076
749, 3564049343, -118.29971313476562, 69.53193664550781, -97.1589126586914, 0.016029388, -0.07161476, -0.32571983
750, 3564066010, -118.21955108642578, 69.50861358642578, -97.03343200683594, -0.06914597, -0.29628164, -0.3701496
751, 3564082677, -118.11885070800781, 69.46609497070312, -97.0069808959961, -0.07953351, -0.3888074, -0.38711262
752, 3564099344, -118.04505157470703, 69.41191101074219, -97.1072998046875, -0.048870213, -0.2510065, -0.31788254
753, 3564116011, -118.0020751953125, 69.3571548461914, -97.26068115234375, 0.04629892, 0.11307037, -0.22567272
754, 3564132678, -118.0260238647461, 69.30973815917969, -97.44514465332031, 0.097376995, 0.3486187, -0.19864559
755, 3564149345, -118.11398315429688, 69.26898956298828, -97.63841247558594, 0.1757545, 0.39311212, -0.18271446
756, 3564166012, -118.21398162841797, 69.2339859008789, -97.76728820800781, 0.22631939, 0.3174025, -0.199337
757, 3564182679, -118.30651092529297, 69.21635437011719, -97.80619049072266, 0.23822235, 0.2910239, -0.11973858
758, 3564199346, -118.44586181640625, 69.22393035888672, -97.8484115600586, 0.21855052, 0.20280443, -0.098195076
759, 3564216013, -118.57534790039062, 69.23497772216797, -97.89612579345703, 0.22159342, -0.06981017, -0.032549858
760, 3564232680, -118.5802001953125, 69.2260971069336, -97.8528823852539, 0.22230598, -0.33091152, 0.01815319
761, 3564249347, -118.54148864746094, 69.20000457763672, -97.8115005493164, 0.19492342, -0.55365455, -0.10643864
762, 3564266014, -118.53043365478516, 69.17242431640625, -97.86134338378906, 0.22711912, -0.49671274, -0.17087173
763, 3564282681, -118.55474853515625, 69.1324462890625, -97.97956848144531, 0.29093787, -0.26870596, -0.24843311
764, 3564299348, -118.6399917602539, 69.07113647460938, -98.12330627441406, 0.4485315, -0.0051361043, -0.3529482
765, 3564316015, -118.80130767822266, 68.9736557006836, -98.27322387695312, 0.5511445, 0.23295046, -0.3661995
766, 3564332682, -119.04048919677734, 68.83811950683594, -98.42422485351562, 0.60621923, 0.30525282, -0.038488388
767, 3564349349, -119.22819519042969, 68.71717834472656, -98.44000244140625, 0.75789934, -0.121272095, 0.31820393
768, 3564366016, -118.86314392089844, 68.56756591796875, -97.94792175292969, 1.0710844, -0.3268958, 0.041069984
769, 3564382683, -117.97677612304688, 68.45884704589844, -96.92981719970703, 1.6033134, -0.82872534, 0.048391342
770, 3564399350, -117.1581802368164, 68.47370147705078, -95.82268524169922, 1.6228802, -1.98688, 0.19149876
771, 3564416017, -115.98477935791016, 68.44799041748047, -94.61309051513672, 1.1078621, -1.706473, 0.11840725
772, 3564432684, -114.08516693115234, 68.34609985351562, -93.02023315429688, 1.2652197, -1.0571969, -0.048786163
773, 3564449351, -111.7945327758789, 68.19255828857422, -90.97732543945312, 1.6513588, -0.6672064, 0.1565504
774, 3564466018, -109.170654296875, 68.01325225830078, -88.37684631347656, 1.6124752, -0.059278093, 0.39424324
775, 3564482685, -106.3217544555664, 67.77259063720703, -85.36415100097656, 1.2963389, 0.0585747, 0.5102844
776, 3564499352, -103.23731994628906, 67.46730041503906, -82.009765625, 1.0944942, -0.2434924, 0.6179209
777, 3564516019, -99.98739624023438, 67.0730209350586, -78.4788589477539, 0.98513293, -0.7241222, 0.72835064
778, 3564532686, -96.48223114013672, 66.56795501708984, -74.79138946533203, 0.8929423, -0.80201226, 0.81314754
779, 3564549353, -92.8639907836914, 65.97126770019531, -71.11576843261719, 0.85411316, -0.5674506, 0.7619686
780, 3564566020, -89.17401123046875, 65.2772216796875, -67.50138854980469, 0.7004243, -0.21653226, 0.81513214
781, 3564582687, -85.49584197998047, 64.48302459716797, -63.94347381591797, 0.7078834, 0.03909186, 0.85862064
782, 3564599354, -81.92841339111328, 63.58759307861328, -60.4617919921875, 0.77244884, 0.25975743, 0.76854134
783, 3564616021, -78.5534896850586, 62.61541748046875, -57.076904296875, 0.72913456, 0.3472631, 0.6887245
784, 3564632688, -75.3401107788086, 61.56715393066406, -53.82783508300781, 0.49823272, 0.52301824, 0.6483278
785, 3564649355, -72.29499053955078, 60.453895568847656, -50.7253532409668, 0.365787, 0.651429, 0.6082125
786, 3564666022, -69.44001007080078, 59.28553771972656, -47.78556823730469, 0.2638691, 0.7010628, 0.5083103
787, 3564682689, -66.77721405029297, 58.0577507019043, -44.97821807861328, 0.19898285, 0.5355968, 0.4503355
788, 3564699356, -64.31612396240234, 56.78564453125, -42.36149978637695, 0.22296266, 0.46572366, 0.38746262
789, 3564716023, -62.02482604980469, 55.515411376953125, -39.95710372924805, -0.0097474, 0.44945785, 0.20478535
790, 3564732690, -59.91292953491211, 54.253299713134766, -37.76323699951172, -0.28269383, 0.48114255, -0.017868042
791, 3564749357, -57.99513626098633, 52.97659683227539, -35.73871994018555, -0.38831845, 0.48004168, -0.2917452
792, 3564766024, -56.317962646484375, 51.725311279296875, -33.91178894042969, -0.37224787, 0.36065257, -0.47870922
793, 3564782691, -54.83472442626953, 50.517425537109375, -32.27223587036133, -0.48280185, 0.2867877, -0.52129745
794, 3564799358, -53.52303695678711, 49.35801315307617, -30.841224670410156, -0.5956575, 0.2403608, -0.59194946
795, 3564816025, -52.332454681396484, 48.24814224243164, -29.5573673248291, -0.6779309, 0.29199967, -0.49839306
796, 3564832692, -51.27412796020508, 47.21670150756836, -28.391019821166992, -0.5979908, 0.38648418, -0.54814434
797, 3564849359, -50.35668182373047, 46.26268005371094, -27.31422233581543, -0.53060436, 0.39128837, -0.617507
798, 3564866026, -49.5650520324707, 45.36640548706055, -26.325000762939453, -0.4491087, 0.37749955, -0.62100506
799, 3564882693, -48.88650894165039, 44.51902389526367, -25.437484741210938, -0.44325078, 0.22237661, -0.7493191
800, 3564899360, -48.30813217163086, 43.699623107910156, -24.62557029724121, -0.5092658, 0.11455687, -0.884861
801, 3564916027, -47.83937072753906, 42.91556930541992, -23.91223907470703, -0.4189489, 0.11815889, -0.83121395
802, 3564932694, -47.469886779785156, 42.188690185546875, -23.286457061767578, -0.40795964, 0.18600503, -0.8070841
803, 3564949361, -47.16860580444336, 41.52298355102539, -22.72760581970215, -0.44154716, 0.12742741, -0.76911163
804, 3564966028, -46.90450668334961, 40.90571212768555, -22.216842651367188, -0.3529075, 0.12980627, -0.680933
805, 3564982695, -46.67903518676758, 40.35426330566406, -21.761871337890625, -0.17035979, -0.00125469, -0.70354366
806, 3564999362, -46.46650695800781, 39.86614990234375, -21.37888526916504, -0.16453862, -0.13330759, -0.7259083
807, 3565016029, -46.22114181518555, 39.428340911865234, -21.0427303314209, -0.15507194, -0.06437966, -0.65689373
808, 3565032696, -45.957828521728516, 39.05857849121094, -20.750516891479492, -0.050998505, 0.11951428, -0.5639963
809, 3565049363, -45.685638427734375, 38.721031188964844, -20.470956802368164, -0.004977857, 0.23029009, -0.47516632
810, 3565066030, -45.438838958740234, 38.39586639404297, -20.200437545776367, 0.06712876, 0.13466276, -0.5391998
811, 3565082697, -45.20998001098633, 38.09799575805664, -19.9252986907959, 0.32528043, 0.16489322, -0.46595955
812, 3565099364, -44.9843635559082, 37.86768341064453, -19.649747848510742, 0.50879884, 0.3420251, -0.4222479
813, 3565116031, -44.738067626953125, 37.66613006591797, -19.327571868896484, 0.4791378, 0.4720797, -0.41625214
814, 3565132698, -44.46173858642578, 37.480865478515625, -18.96954917907715, 0.5821879, 0.61091924, -0.25578594
815, 3565149365, -44.145206451416016, 37.322208404541016, -18.56928062438965, 0.46081957, 0.63124406, -0.27484894
816, 3565166032, -43.7796516418457, 37.193267822265625, -18.139108657836914, 0.36351788, 0.4924291, -0.35616875
817, 3565182699, -43.38712692260742, 37.08235549926758, -17.68714714050293, 0.28753465, 0.32416922, -0.3895235
818, 3565199366, -42.97126007080078, 36.980777740478516, -17.210498809814453, 0.31035334, 0.35960016, -0.27097416
819, 3565216033, -42.53450393676758, 36.91829299926758, -16.714256286621094, 0.25271022, 0.43855232, -0.1830349
820, 3565232700, -42.053165435791016, 36.895042419433594, -16.180011749267578, 0.09445725, 0.4267725, -0.25856876
821, 3565249367, -41.51575469970703, 36.90424728393555, -15.602417945861816, 0.023956565, 0.4611394, -0.37878513
822, 3565266034, -40.96757888793945, 36.924556732177734, -14.999186515808105, -0.008455942, 0.3158827, -0.33551216
823, 3565282701, -40.47002410888672, 36.935550689697266, -14.374983787536621, -0.005312456, 0.2406278, -0.2484045
824, 3565299368, -40.051082611083984, 36.93965148925781, -13.743141174316406, 0.010669838, 0.26730618, -0.33538532
825, 3565316035, -39.73503112792969, 36.94730758666992, -13.126727104187012, 0.09170759, 0.26414683, -0.2460804
826, 3565332702, -39.541114807128906, 36.95573425292969, -12.529288291931152, 0.068941005, 0.19376628, -0.020552635
827, 3565349369, -39.42414093017578, 36.99428939819336, -11.946504592895508, 0.11299362, 0.27144408, 0.070547104
828, 3565366036, -39.283416748046875, 37.099246978759766, -11.38297176361084, 0.13029374, 0.3801162, 0.1265974
829, 3565382703, -39.07522201538086, 37.26414108276367, -10.825178146362305, -0.14195196, 0.05602956, -0.11108112
830, 3565399370, -38.73820877075195, 37.43730545043945, -10.213685989379883, -0.3173162, 0.077933155, -0.4669609
831, 3565416037, -38.325565338134766, 37.574825286865234, -9.547635078430176, -0.26550135, 0.1676717, -0.73494244
832, 3565432704, -37.99871826171875, 37.66822814941406, -8.873318672180176, -0.1009988, 0.22042446, -0.7796898
833, 3565449371, -37.760498046875, 37.75261306762695, -8.194511413574219, 0.09570065, 0.35067138, -0.50975037
834, 3565466038, -37.546810150146484, 37.875511169433594, -7.504627704620361, 0.3375153, 0.56055796, 0.10991764
835, 3565482705, -37.470985412597656, 38.023284912109375, -6.840607166290283, 0.84311366, 0.3308897, 0.7351618
836, 3565499372, -37.49378204345703, 38.245243072509766, -6.251632213592529, 0.5245731, -0.12126606, 0.30254364
837, 3565516039, -37.41480255126953, 38.48423767089844, -5.735337734222412, -0.4089704, -0.65826935, -0.8311043
838, 3565532706, -37.23921585083008, 38.68486022949219, -5.253126621246338, -0.80962473, -0.7636022, -1.1379156
839, 3565549373, -37.130531311035156, 38.79875183105469, -4.797702312469482, -0.87173563, -0.33982006, -0.7886934
840, 3565566040, -37.19187545776367, 38.888092041015625, -4.339639663696289, -0.98060966, 0.6453264, -0.588398
841, 3565582707, -37.39105224609375, 38.92085647583008, -3.7681312561035156, 0.53117317, 2.1851592, 2.2737951
842, 3565599374, -37.710235595703125, 39.192867279052734, -2.9469261169433594, 0.3337158, 2.486151, -0.62078285
843, 3565616041, -38.18775177001953, 39.40700149536133, -2.1569435596466064, -0.07314506, -2.2195525, -1.3476753
844, 3565632708, -38.441471099853516, 39.53227996826172, -1.6941847801208496, 0.27832282, -5.271097, -1.233962
845, 3565649375, -38.0715217590332, 39.725704193115234, -1.5445818901062012, -0.1929585, -4.1558933, -0.31774235
846, 3565666042, -37.26704788208008, 39.95794677734375, -1.5506222248077393, -0.7956952, -1.6402291, 0.8697624
847, 3565682709, -36.52836990356445, 40.17459487915039, -1.5628551244735718, -0.65042347, 0.22046621, 0.11267948
848, 3565699376, -36.17764663696289, 40.329105377197266, -1.4939345121383667, -0.14589652, 1.3363941, -0.37215614
849, 3565716043, -36.29911422729492, 40.407352447509766, -1.3579002618789673, 0.13493074, 1.303526, -0.09754753
850, 3565732710, -36.84492492675781, 40.393672943115234, -1.1919214725494385, 0.11146926, 0.9254784, 0.033329964
851, 3565749377, -37.67704772949219, 40.325199127197266, -1.0118001699447632, -4.3093297E-4, 0.40728644, 0.21084976
852, 3565766044, -38.552093505859375, 40.20510482788086, -0.8253276348114014, -0.121261366, -0.32445443, 0.31746006
853, 3565782711, -39.307281494140625, 40.1082878112793, -0.7149341702461243, -0.24854171, -1.1653544, -0.065514565
854, 3565799378, -39.81123733520508, 40.048091888427734, -0.7491862773895264, -0.4634369, -1.4838096, -0.414402
855, 3565816045, -40.125667572021484, 40.04741287231445, -0.9445699453353882, -0.6457788, -1.279978, -0.59073067
856, 3565832712, -40.32999801635742, 40.13784408569336, -1.2429310083389282, -0.85945493, -0.98226994, -0.96258736
857, 3565849379, -40.5236930847168, 40.33563995361328, -1.6258459091186523, -0.97447467, -0.5866738, -1.4432106
858, 3565866046, -40.850643157958984, 40.65162658691406, -2.099738359451294, -1.156355, -0.33913723, -2.1112075
859, 3565882713, -41.45933532714844, 41.06431198120117, -2.716186761856079, -1.3878561, -0.5222198, -2.7263808
860, 3565899380, -42.3988151550293, 41.538108825683594, -3.534658193588257, -1.417198, -0.27100274, -2.477799
861, 3565916047, -43.78715896606445, 42.20209503173828, -4.642292022705078, -1.2693696, 0.23314022, -1.2607956
862, 3565932714, -45.304439544677734, 43.02141189575195, -5.8090500831604, -1.3181877, 0.23267308, 0.078269005
863, 3565949381, -46.670326232910156, 43.96072769165039, -6.917701244354248, -0.7790005, -0.36265394, 0.21635914
864, 3565966048, -47.84419250488281, 45.02500534057617, -8.125106811523438, -0.21715647, -1.1071926, -0.17864037
865, 3565982715, -48.787078857421875, 46.13435363769531, -9.54690170288086, -0.34978145, -1.2661064, -0.43456554
866, 3565999382, -49.6150016784668, 47.32307815551758, -11.28757381439209, 0.20636192, -0.74751854, -0.0024690628
867, 3566016049, -50.3685417175293, 48.63078308105469, -13.331414222717285, 0.2673957, -0.3602926, 0.24164867
868, 3566032716, -50.858150482177734, 49.9892692565918, -15.44942569732666, -0.2824131, -0.0018891315, 0.16496181
869, 3566049383, -51.14765548706055, 51.30534744262695, -17.480981826782227, -0.3960739, 0.1569099, 0.54608345
870, 3566066050, -51.46857833862305, 52.48884201049805, -19.543535232543945, 0.30051675, -0.13819012, 0.88675976
871, 3566082717, -52.00993728637695, 53.510292053222656, -21.825115203857422, 0.80963856, -0.59410805, 0.95032406
872, 3566099384, -52.5482292175293, 54.388458251953125, -24.084117889404297, 0.30674696, -0.5003703, 0.75088215
873, 3566116051, -53.01020812988281, 55.14176940917969, -26.11090660095215, 0.42241982, 0.2614062, 0.9928045
874, 3566132718, -53.46231460571289, 55.700538635253906, -27.759952545166016, 1.3938107, 1.2904037, 1.6487474
875, 3566149385, -53.961639404296875, 56.04466247558594, -28.967525482177734, 2.4223082, 1.6556859, 1.993743
876, 3566166052, -54.51487731933594, 56.209800720214844, -29.790706634521484, 2.7448769, 0.8520765, 1.7476921
877, 3566182719, -55.016387939453125, 56.251224517822266, -30.298255920410156, 2.4791772, 3.3191673E-4, 1.0826473
878, 3566199386, -55.27167510986328, 56.14069747924805, -30.450695037841797, 2.2782943, 0.08468872, 0.947917
879, 3566216053, -55.39242935180664, 55.87178421020508, -30.39019203186035, 2.462817, 0.22462866, 1.1784077
880, 3566232720, -55.32076644897461, 55.467689514160156, -30.07278060913086, 2.6762288, 0.37417892, 1.2257614
881, 3566249387, -55.08875274658203, 54.955177307128906, -29.555984497070312, 2.2585783, -0.02408095, 0.97323704
882, 3566266054, -54.69839859008789, 54.341007232666016, -28.92369270324707, 1.8073678, -0.42452586, 0.8991575
883, 3566282721, -54.094024658203125, 53.62319564819336, -28.217697143554688, 1.6779169, -0.8298234, 1.1109362
884, 3566299388, -53.28966522216797, 52.84696960449219, -27.5250244140625, 1.4914687, -1.1469431, 1.0492077
885, 3566316055, -52.330909729003906, 52.01325607299805, -26.902116775512695, 1.0858599, -1.161208, 0.9172678
886, 3566332722, -51.24284744262695, 51.1470947265625, -26.31792449951172, 0.84668404, -0.62442946, 0.825655
887, 3566349389, -50.12400817871094, 50.25511169433594, -25.733966827392578, 0.76842815, -0.18703273, 0.68641853
888, 3566366056, -49.091636657714844, 49.333431243896484, -25.162372589111328, 0.6879405, 0.043108832, 0.2850418
889, 3566382723, -48.23480987548828, 48.417869567871094, -24.614086151123047, 0.7160421, 0.30057564, 0.030254364
890, 3566399390, -47.5246467590332, 47.49431228637695, -24.040756225585938, 0.6932216, 0.5737572, 0.15752316
891, 3566416057, -47.002288818359375, 46.54804611206055, -23.424949645996094, 0.5229385, 0.401383, 0.12925339
892, 3566432724, -46.638427734375, 45.57707595825195, -22.813756942749023, 0.2168574, 0.2601103, -0.23301601
893, 3566449391, -46.36676025390625, 44.589942932128906, -22.258882522583008, 0.13195333, 0.11835648, -0.14236546
894, 3566466058, -46.14308547973633, 43.601043701171875, -21.76315689086914, -0.009025007, -0.1096654, 0.1607523
895, 3566482725, -45.89506912231445, 42.66330337524414, -21.31855010986328, -0.39403751, -0.3230154, -0.026796341
896, 3566499392, -45.51162338256836, 41.80856704711914, -20.935956954956055, -0.34248936, -0.11526116, -0.227705
897, 3566516059, -45.01346206665039, 41.03633117675781, -20.60882568359375, -0.17001624, 0.13590716, -0.39820862
898, 3566532726, -44.45299530029297, 40.311195373535156, -20.28750991821289, -0.06794414, 0.32668686, -0.47522545
899, 3566549393, -43.89680480957031, 39.63035583496094, -19.94760513305664, 0.094277315, 0.50001734, -0.5516739
900, 3566566060, -43.40078353881836, 38.97294998168945, -19.54838752746582, 0.42985967, 0.6911975, -0.46250725
901, 3566582727, -43.00642013549805, 38.3148078918457, -19.05036163330078, 0.6457166, 0.7150012, -0.5247927
902, 3566599394, -42.68272018432617, 37.65304946899414, -18.51162338256836, 0.67758536, 0.69555557, -0.5832844
903, 3566616061, -42.37054443359375, 36.98995590209961, -17.93576431274414, 0.58935964, 0.69641453, -0.48064232
904, 3566632728, -42.028717041015625, 36.359500885009766, -17.3181209564209, 0.43685517, 0.55699956, -0.35682678
905, 3566649395, -41.64683151245117, 35.77947235107422, -16.665929794311523, 0.25651443, 0.30745983, -0.20896435
906, 3566666062, -41.2626838684082, 35.21632766723633, -15.98643684387207, 0.24713872, 0.40965375, -0.14879799
907, 3566682729, -40.94550323486328, 34.64326858520508, -15.25003719329834, 0.41818604, 0.6521581, 0.21710014
908, 3566699396, -40.811832427978516, 33.96112060546875, -14.395092964172363, 0.81078386, 1.494926, 1.1213284
909, 3566716063, -41.0184211730957, 33.14482498168945, -13.3341703414917, 1.1167234, 2.647637, 1.6797037
910, 3566732730, -41.466182708740234, 32.375492095947266, -12.260960578918457, -1.9368916, -0.3867725, -2.2591577
911, 3566749397, -42.458778381347656, 32.161495208740234, -12.031201362609863, -6.856284, -3.0877979, -11.855268
912, 3566766064, -43.22026824951172, 32.290489196777344, -12.326142311096191, -5.5008097, -1.918889, -2.9495401
913, 3566782731, -44.93326187133789, 32.04795837402344, -11.990647315979004, 0.8749638, 3.433862, 7.8034554
914, 3566799398, -46.05889129638672, 31.675859451293945, -11.182060241699219, 0.06174009, 0.41404322, 3.2226572
915, 3566816065, -46.16743087768555, 31.227731704711914, -10.684494018554688, -0.2642645, -4.3172717, -0.2661047
916, 3566832732, -45.56206512451172, 30.823772430419922, -10.727729797363281, 0.47871727, -4.913968, -1.0940027
917, 3566849399, -44.45130920410156, 30.70342445373535, -11.083728790283203, -1.3277067, -1.448665, -1.3275509
918, 3566866066, -43.238224029541016, 30.806711196899414, -11.582661628723145, -1.684285, -0.18193574, -1.3897486
919, 3566882733, -42.437347412109375, 30.97024917602539, -11.865538597106934, -0.29725212, 2.0469217, -1.2177649
920, 3566899400, -42.22702407836914, 31.089080810546875, -11.888952255249023, 0.63099205, 3.2258115, -1.2248383
921, 3566916067, -42.829132080078125, 31.02703285217285, -11.759093284606934, 0.87080646, 2.3398087, -1.5802774
922, 3566932734, -43.87123489379883, 30.921369552612305, -11.601977348327637, 0.7717821, 0.49300396, -1.8025227
923, 3566949401, -44.79673385620117, 30.902210235595703, -11.525373458862305, 0.30647135, -1.3387268, -1.3049526
924, 3566966068, -45.24544906616211, 30.978073120117188, -11.555525779724121, 0.122602664, -2.2378156, -0.40823078
925, 3566982735, -45.102882385253906, 31.183238983154297, -11.649267196655273, 0.23895279, -1.7431042, -0.016292572
926, 3566999402, -44.49168014526367, 31.498001098632812, -11.778752326965332, 0.4864317, -0.7012019, 0.18207264
927, 3567016069, -43.71371078491211, 31.844545364379883, -11.940271377563477, 0.5361707, -0.082019195, 0.1923809
928, 3567032736, -42.90892028808594, 32.19233322143555, -12.083046913146973, 0.5338405, 0.3132858, 0.028069496
929, 3567049403, -42.236080169677734, 32.51882553100586, -12.1814546585083, 0.54174846, 0.42156053, -0.16136646
930, 3567066070, -41.77887725830078, 32.80697250366211, -12.23076057434082, 0.5443016, 0.33586332, -0.15499783
931, 3567082737, -41.54135513305664, 33.04175567626953, -12.276548385620117, 0.5038016, 0.3059917, 0.043823242
932, 3567099404, -41.520633697509766, 33.1905517578125, -12.321215629577637, 0.26004413, 0.0640901, 0.33361626
933, 3567116071, -41.6746826171875, 33.26448440551758, -12.371797561645508, -0.011219233, -0.13422467, 0.5364313
934, 3567132738, -41.90800476074219, 33.308502197265625, -12.455770492553711, -0.22105119, -0.48853406, 0.5501995
935, 3567149405, -42.09254455566406, 33.35532760620117, -12.557987213134766, -0.27426514, -0.5366794, 0.37308502
936, 3567166072, -42.199337005615234, 33.436988830566406, -12.686605453491211, -0.28844637, -0.5680378, -0.018072128
937, 3567182739, -42.28786849975586, 33.56197738647461, -12.894993782043457, -0.16155227, -0.59700096, -0.24142742
938, 3567199406, -42.40242385864258, 33.681453704833984, -13.156941413879395, -0.089946754, -0.45222685, -0.4411173
939, 3567216073, -42.60589599609375, 33.802669525146484, -13.464765548706055, -0.091156855, -0.36324254, -0.6667557
940, 3567232740, -42.916046142578125, 33.92292022705078, -13.832623481750488, -0.13745734, -0.35619438, -0.72979546
941, 3567249407, -43.383792877197266, 34.07358932495117, -14.286545753479004, -0.13690192, -0.37688228, -0.5589094
942, 3567266074, -43.959049224853516, 34.28121566772461, -14.786324501037598, -0.24966688, -0.29825658, -0.53605175
943, 3567282741, -44.57588577270508, 34.57976531982422, -15.347126007080078, -0.34879866, -0.34751582, -0.46134853
944, 3567299408, -45.16727066040039, 34.9420166015625, -15.947622299194336, -0.5349833, -0.32557458, -0.31942177
945, 3567316075, -45.64922332763672, 35.378292083740234, -16.608535766601562, -0.4023602, -0.4494023, -0.37618256
946, 3567332742, -46.017333984375, 35.834266662597656, -17.32317543029785, -0.4596819, -0.6380537, -0.5275898
947, 3567349409, -46.309871673583984, 36.31425857543945, -18.108491897583008, -0.357842, -0.5358449, -0.65550995
948, 3567366076, -46.636436462402344, 36.82258605957031, -18.992679595947266, -0.13178681, -0.22510739, -0.39091396
949, 3567382743, -47.10932159423828, 37.40196228027344, -19.98981285095215, -0.121687606, -0.11087774, -0.256814
950, 3567399410, -47.58633041381836, 38.0078125, -20.998245239257812, -0.43819267, 0.17220399, -0.30594635
951, 3567416077, -48.05067443847656, 38.643951416015625, -22.016508102416992, -0.3989666, 0.39069182, -0.50562763
952, 3567432744, -48.605281829833984, 39.30918884277344, -23.063386917114258, -0.31648025, 0.36398268, -0.5710468
953, 3567449411, -49.29672622680664, 40.0211181640625, -24.142955780029297, -0.21274365, 0.31341267, -0.4385481
954, 3567466078, -50.04499816894531, 40.77439498901367, -25.219100952148438, -0.42112723, 0.16023241, -0.5644512
955, 3567482745, -50.78927993774414, 41.54399108886719, -26.311447143554688, -0.24075116, 0.2131576, -0.45002747
956, 3567499412, -51.561309814453125, 42.32118225097656, -27.429492950439453, -0.030623287, 0.1184004, -0.5212116
957, 3567516079, -52.39266586303711, 43.128379821777344, -28.582515716552734, -0.035881206, -0.22382286, -0.66474915
958, 3567532746, -53.29558181762695, 43.97587203979492, -29.85580825805664, 0.11527971, -0.36387607, -0.5144787
959, 3567549413, -54.28089904785156, 44.82835388183594, -31.246999740600586, 0.048814557, -0.22925466, -0.2796116
960, 3567566080, -55.24582290649414, 45.65236282348633, -32.672645568847656, -0.10769862, 0.17188165, 0.026526451
961, 3567582747, -56.15016174316406, 46.47074890136719, -34.09183120727539, -0.016827397, 0.4652201, 0.15125465
962, 3567599414, -57.066070556640625, 47.309783935546875, -35.52423858642578, 0.17365839, 0.3597079, -0.078969955
963, 3567616081, -58.137977600097656, 48.14506912231445, -37.06020736694336, 0.03767579, -0.3646577, -0.3426733
964, 3567632748, -59.299537658691406, 48.91242599487305, -38.67433547973633, -0.15907507, -0.4292915, -0.20088196
965, 3567649415, -60.50082015991211, 49.61103820800781, -40.32419204711914, 0.028741531, 0.20663884, 0.29042625
966, 3567666082, -61.73488235473633, 50.324161529541016, -41.92639923095703, 0.48978126, 0.6473562, 0.48012066
967, 3567682749, -62.91547393798828, 51.082054138183594, -43.426761627197266, 0.595156, 0.76846504, 0.33053493
968, 3567699416, -64.1122055053711, 51.86259078979492, -44.9490966796875, 0.5193118, 0.44487756, 0.12555885
969, 3567716083, -65.34400939941406, 52.59720230102539, -46.50028991699219, 0.1506294, 0.010791765, 0.25807762
970, 3567732750, -66.59163665771484, 53.268672943115234, -48.0568962097168, 0.16727531, -0.317011, 0.22831059
971, 3567749417, -67.8373031616211, 53.9106330871582, -49.637691497802734, 0.35765335, -0.19374572, 0.018357277
972, 3567766084, -69.09870147705078, 54.55191421508789, -51.229637145996094, 0.5760635, 0.22038545, 0.007446289
973, 3567782751, -70.47655487060547, 55.214019775390625, -52.85572052001953, 0.34134227, 0.061237633, -0.002046585
974, 3567799418, -71.89653015136719, 55.85380554199219, -54.50557327270508, 0.03590557, -0.24370757, 0.18819141
975, 3567816085, -73.3107681274414, 56.45320129394531, -56.20101547241211, 0.06607445, -0.14332645, 0.08276844
976, 3567832752, -74.7202377319336, 57.03829574584961, -57.9371223449707, 0.23501672, 0.11137209, -0.10062885
977, 3567849419, -76.17137908935547, 57.62004470825195, -59.68561553955078, 0.43980286, 0.44482064, 0.006275177
978, 3567866086, -77.68273162841797, 58.1877555847168, -61.47305679321289, 0.53416467, 0.75482637, 0.15586376
979, 3567882753, -79.26113891601562, 58.7090950012207, -63.22906494140625, 0.33886576, 0.50501245, 0.23124123
980, 3567899420, -80.94112396240234, 59.210105895996094, -64.86898803710938, 0.5012108, 0.094412096, -0.12190533
981, 3567916087, -82.6855697631836, 59.725502014160156, -66.43562316894531, 0.8550761, 0.24567191, -0.24136543
982, 3567932754, -84.44976806640625, 60.272422790527344, -67.9570083618164, 0.9897797, 0.36770588, 0.15827751
983, 3567949421, -86.18970489501953, 60.8172607421875, -69.48339080810547, 0.829643, 0.15767106, 0.45753574
984, 3567966088, -87.7905502319336, 61.331703186035156, -70.94868469238281, 0.49221084, -0.20336439, 0.48949146
985, 3567982755, -89.27147674560547, 61.830692291259766, -72.34904479980469, 0.2873371, -0.4322391, 0.12718678
986, 3567999422, -90.7230453491211, 62.345497131347656, -73.7662124633789, 0.4085459, -0.27382612, -0.29572868
987, 3568016089, -92.19546508789062, 62.894752502441406, -75.27462005615234, 0.7222258, -0.18219905, -0.41751862
988, 3568032756, -93.69766998291016, 63.44863510131836, -76.89850616455078, 0.53357995, -0.24082632, -0.26544094
989, 3568049423, -95.07168579101562, 63.96112823486328, -78.44618225097656, 0.28355077, -0.45000535, 0.10222244
990, 3568066090, -96.29493713378906, 64.40996551513672, -79.87754821777344, 0.5389313, -0.4871988, 0.21613216
991, 3568082757, -97.38127136230469, 64.81787109375, -81.17034149169922, 0.7862019, -0.31827173, 0.22107029
992, 3568099424, -98.33611297607422, 65.22217559814453, -82.28129577636719, 0.85012394, -0.17331642, 0.30482864
993, 3568116091, -99.18919372558594, 65.6264877319336, -83.25157165527344, 0.78834903, -0.24619189, 0.2747755
994, 3568132758, -99.9232406616211, 66.0208969116211, -84.0703353881836, 0.7163662, -0.4213234, 0.16721821
995, 3568149425, -100.58894348144531, 66.40418243408203, -84.77996063232422, 0.69299656, -0.55742514, 0.02325821
996, 3568166092, -101.14038848876953, 66.78556060791016, -85.36547088623047, 0.6453785, -0.5660085, 0.030923843
997, 3568182759, -101.5295181274414, 67.1578369140625, -85.8424301147461, 0.5225715, -0.5649746, 0.069236755
998, 3568199426, -101.73986053466797, 67.50074768066406, -86.20745086669922, 0.52034396, -0.7282263, 0.086551666
999, 3568216093, -101.88720703125, 67.79473876953125, -86.55306243896484, 0.5228026, -0.9533482, -0.16034412
1000, 3568232760, -101.96984100341797, 68.0277328491211, -86.81586456298828, 0.36809722, -1.1635834, -0.26986694
1001, 3568249427, -102.02289581298828, 68.2032241821289, -87.01480102539062, 0.26692095, -1.1886729, -0.10473633
1002, 3568266094, -102.05378723144531, 68.30547332763672, -87.22949981689453, 0.2234012, -0.950478, -0.02825737
1003, 3568282761, -102.19074249267578, 68.32159423828125, -87.59166717529297, 0.34962165, -1.0772334, -0.11512661
1004, 3568299428, -102.8081283569336, 68.1744384765625, -88.50285339355469, 0.36978832, -1.8470321, -0.56592464
1005, 3568316095, -104.00804901123047, 67.89698791503906, -90.28482055664062, -0.5684221, -2.140766, -0.59966373
1006, 3568332762, -104.85322570800781, 67.68084716796875, -92.0718002319336, -1.5202893, -1.1412959, -0.10346985
1007, 3568349429, -105.09033966064453, 67.46099853515625, -93.56421661376953, -0.6044322, -1.2496345, 0.09212303
1008, 3568366096, -104.8450698852539, 67.10103607177734, -94.734375, -0.35352328, -2.2174048, 0.48142338
1009, 3568382763, -104.07614135742188, 66.64720916748047, -95.51497650146484, -0.45794475, -1.9568793, 0.693161
1010, 3568399430, -103.05261993408203, 66.11554718017578, -96.31440734863281, -0.7597004, -1.3841693, 0.8203249
1011, 3568416097, -101.68553924560547, 65.54600524902344, -96.96461486816406, -1.1437676, -1.1882592, 1.1259241
1012, 3568432764, -99.95816802978516, 64.89159393310547, -97.29814910888672, -0.870515, -1.1133245, 1.1834173
1013, 3568449431, -97.853759765625, 64.17463684082031, -97.28206634521484, 0.4870097, -0.66491514, 1.3157492
1014, 3568466098, -95.53453063964844, 63.42343521118164, -96.94866180419922, 1.3656865, -0.06443381, 1.4542274
1015, 3568482765, -93.10153198242188, 62.71208572387695, -96.21024322509766, 1.6032281, -0.36254987, 1.2614031
1016, 3568499432, -90.48119354248047, 61.93181228637695, -94.96717071533203, 1.240948, -1.2526582, 1.1560535
1017, 3568516099, -87.68232727050781, 61.040252685546875, -93.37703704833984, 1.2573175, -1.2177644, 0.81070995
1018, 3568532766, -84.7765884399414, 59.975467681884766, -91.47431945800781, 1.9296349, -1.0497626, 0.900074
1019, 3568549433, -81.9701919555664, 58.76909255981445, -89.39139556884766, 2.7551365, -0.8827117, 1.140872
1020, 3568566100, -79.189208984375, 57.445831298828125, -87.07038116455078, 2.821453, -0.5170573, 1.3543358
1021, 3568582767, -76.47046661376953, 55.96276092529297, -84.62226104736328, 2.0775204, -0.2687875, 1.5475807
1022, 3568599434, -73.76338195800781, 54.3373908996582, -82.17046356201172, 1.1446223, -0.055759225, 1.411932
1023, 3568616101, -71.23625183105469, 52.654624938964844, -79.93862915039062, 1.097205, -0.94961244, 1.5795736
1024, 3568632768, -68.7412109375, 50.94023513793945, -77.78952026367188, 0.2958963, -0.8057352, 1.5253277
1025, 3568649435, -66.18529510498047, 49.32733917236328, -75.79596710205078, -0.04091606, -0.17689459, 0.809248
1026, 3568666102, -63.53791046142578, 47.769989013671875, -73.96324157714844, 0.27331254, 0.22106138, 0.8194132
1027, 3568682769, -60.9390869140625, 46.18819808959961, -72.31438446044922, 0.43023115, 0.418278, 0.6651287
1028, 3568699436, -58.47977828979492, 44.61374282836914, -70.77790832519531, 0.31168994, 0.7341869, 0.4683981
1029, 3568716103, -56.19231033325195, 43.14006423950195, -69.35478210449219, 0.23682472, 1.0297289, 0.015381813
1030, 3568732770, -54.030250549316406, 41.865928649902344, -68.05772399902344, -0.07645529, 1.199078, -0.91225624
1031, 3568749437, -51.90319061279297, 40.769325256347656, -66.80734252929688, 0.06853622, 1.3941829, -1.0071154
1032, 3568766104, -49.756263732910156, 39.762428283691406, -65.51376342773438, 0.29038578, 1.6327789, -0.9996033
1033, 3568782771, -47.624019622802734, 38.77225875854492, -64.1605453491211, 0.91299564, 1.597265, -0.695096
1034, 3568799438, -45.66059875488281, 37.7501220703125, -62.74189376831055, 1.2039032, 1.3034656, -0.4014969
1035, 3568816105, -43.913475036621094, 36.70699691772461, -61.22608184814453, 1.0545632, 1.4396495, -0.8076525
1036, 3568832772, -42.4068489074707, 35.63042068481445, -59.636287689208984, 0.6072264, 1.3791386, -0.7773924
1037, 3568849439, -41.20541763305664, 34.48264694213867, -58.007164001464844, 0.70506513, 1.4259095, -0.2024355
1038, 3568866106, -40.305015563964844, 33.32997131347656, -56.36920166015625, 0.64953023, 1.8008572, -0.96008015
1039, 3568882773, -39.67912292480469, 32.22044372558594, -54.70442581176758, 0.45178205, 2.1177268, -1.5985737
1040, 3568899440, -39.32767105102539, 31.098894119262695, -53.01612091064453, 0.52467185, 1.9118665, -1.9217248
1041, 3568916107, -39.29443359375, 29.95899200439453, -51.28575134277344, 0.7444794, 1.714474, -2.107625
1042, 3568932774, -39.59787368774414, 28.804628372192383, -49.51264953613281, 0.71042156, 1.6997354, -1.9524932
1043, 3568949441, -40.155941009521484, 27.5930233001709, -47.71846389770508, 0.09224961, 1.5838963, -1.415865
1044, 3568966108, -40.88951873779297, 26.34133529663086, -45.937156677246094, -0.32133585, 1.1135125, -1.238059
1045, 3568982775, -41.73630142211914, 25.109575271606445, -44.1939582824707, -0.6598156, 0.5920029, -1.5008583
1046, 3568999442, -42.60313034057617, 23.954750061035156, -42.52876663208008, -0.93624103, 0.18221748, -1.4799252
1047, 3569016109, -43.41117477416992, 22.891986846923828, -40.936729431152344, -1.076085, -0.010146929, -1.2790852
1048, 3569032776, -44.15961837768555, 21.94203758239746, -39.39960479736328, -0.96326685, -0.18502638, -1.4439507
1049, 3569049443, -44.832828521728516, 21.155231475830078, -37.92024612426758, -1.0283438, -0.38572872, -1.674387
1050, 3569066110, -45.38900375366211, 20.533632278442383, -36.5564079284668, -1.1867735, -0.89374995, -1.6472178
1051, 3569082777, -45.88554000854492, 20.04159164428711, -35.35972213745117, -1.0767583, -1.1118066, -1.3514585
1052, 3569099444, -46.380374908447266, 19.684988021850586, -34.352169036865234, -0.83098966, -1.143925, -1.0511732
1053, 3569116111, -46.86772537231445, 19.442989349365234, -33.48345184326172, -0.95336276, -1.2051053, -0.62575054
1054, 3569132778, -47.24136734008789, 19.327526092529297, -32.77439498901367, -1.2417417, -1.4960344, -0.59967804
1055, 3569149445, -47.38116455078125, 19.344890594482422, -32.232608795166016, -1.305089, -1.7606821, -0.37446213
1056, 3569166112, -47.26543426513672, 19.44780921936035, -31.857019424438477, -1.1235969, -1.8071, 0.05090046
1057, 3569182779, -46.93852996826172, 19.635534286499023, -31.631174087524414, -0.97516805, -1.6298062, 0.23322105
1058, 3569199446, -46.41104507446289, 19.927452087402344, -31.558353424072266, -0.9770792, -1.5944357, 0.08477211
1059, 3569216113, -45.70956802368164, 20.26801109313965, -31.622072219848633, -1.0054942, -1.465751, 0.16222668
1060, 3569232780, -44.89910125732422, 20.66140365600586, -31.852214813232422, -0.96375567, -1.4152237, 0.15712452
1061, 3569249447, -44.015804290771484, 21.11518096923828, -32.20748519897461, -0.8826319, -1.0427846, 0.2916441
1062, 3569266114, -43.07069778442383, 21.61591911315918, -32.65379333496094, -0.8315312, -0.7542319, 0.30397415
1063, 3569282781, -42.06387710571289, 22.155853271484375, -33.177913665771484, -0.7856999, -0.65316385, 0.13733768
1064, 3569299448, -40.99715805053711, 22.7416934967041, -33.770851135253906, -0.6879637, -0.7575233, 0.07328892
1065, 3569316115, -39.875572204589844, 23.333646774291992, -34.435787200927734, -0.5458669, -0.895386, 0.098897934
