sep=,
DeviceTag:,Xsens_4,,,,,,,,,,,,,,,,,
FirmwareVersion:,2.2.1,,,,,,,,,,,,,,,,,
AppVersion:,2022.0.1,,,,,,,,,,,,,,,,,
SyncStatus:,Synced,,,,,,,,,,,,,,,,,
OutputRate:,60Hz,,,,,,,,,,,,,,,,,
FilterProfile:,General,,,,,,,,,,,,,,,,,
Measurement Mode:,Sensor fusion Mode - Complete (Euler),,,,,,,,,,,,,,,,,
StartTime:,2023-05-17 15:27:09.389 +0200,,,,,,,,,,,,,,,,,
© Xsens Technologies B. V. 2005-2023,,,,,,,,,,,,,,,,,,,

PacketCounter,SampleTimeFine,Euler_X,Euler_Y,Euler_Z,FreeAcc_X,FreeAcc_Y,FreeAcc_Z
1, 3551565760, -156.43836975097656, 74.86139678955078, -10.18436050415039, 0.6593816, 0.9446326, -1.7026138
2, 3551582427, -156.83935546875, 75.08631896972656, -10.732583045959473, 0.85267663, 0.92395806, -1.7894793
3, 3551599094, -157.390625, 75.32404327392578, -11.39907455444336, 0.90100783, 0.88826394, -1.7539454
4, 3551615761, -158.1481170654297, 75.57718658447266, -12.21157455444336, 0.86977196, 0.7531341, -1.7160301
5, 3551632428, -159.1553955078125, 75.81002044677734, -13.173855781555176, 0.77207506, 0.64771, -1.6025925
6, 3551649095, -160.3535614013672, 76.01335144042969, -14.219178199768066, 0.60878634, 0.598523, -0.93568134
7, 3551665762, -161.7601318359375, 76.19345092773438, -15.437225341796875, 0.49722904, 0.51787984, 0.23236561
8, 3551682429, -163.3427734375, 76.37663269042969, -16.817014694213867, 0.6846749, 0.23303583, 0.30935287
9, 3551699096, -164.92990112304688, 76.609130859375, -18.036436080932617, 0.71574503, -0.42366636, -0.08761597
10, 3551715763, -166.4786376953125, 76.8970947265625, -19.008773803710938, 0.65109, -0.9518573, 0.025086403
11, 3551732430, -167.86868286132812, 77.25498962402344, -19.698963165283203, 0.72119373, -1.2907295, 0.032208443
12, 3551749097, -168.98414611816406, 77.66827392578125, -20.075231552124023, 0.7327189, -1.6691196, -0.017154694
13, 3551765764, -169.89723205566406, 78.11957550048828, -20.23236846923828, 0.59982353, -1.9207326, -0.12979126
14, 3551782431, -170.7203826904297, 78.59625244140625, -20.372224807739258, 0.65277284, -1.8634554, -0.42312622
15, 3551799098, -171.43780517578125, 79.05769348144531, -20.620174407958984, 0.8085998, -1.7101814, -0.7497368
16, 3551815765, -171.97543334960938, 79.46957397460938, -20.95936393737793, 0.6914389, -1.7837547, -0.80295753
17, 3551832432, -172.34765625, 79.84799194335938, -21.352415084838867, 0.39198402, -1.9911176, -0.78882694
18, 3551849099, -172.6247100830078, 80.19239807128906, -21.769800186157227, 0.12634751, -2.1304464, -0.83128834
19, 3551865766, -172.90879821777344, 80.4646987915039, -22.231611251831055, -0.12902136, -2.1654007, -0.7180958
20, 3551882433, -173.22915649414062, 80.65237426757812, -22.75074005126953, -0.20495027, -2.0302076, -0.4248886
21, 3551899100, -173.59681701660156, 80.76933288574219, -23.352298736572266, -0.10726204, -1.896724, -0.3720827
22, 3551915767, -173.93670654296875, 80.84552001953125, -23.9576358795166, -0.07894061, -1.8782886, -0.6952152
23, 3551932434, -174.2344970703125, 80.8874282836914, -24.543004989624023, -0.09846767, -1.8104532, -1.1620703
24, 3551949101, -174.4795684814453, 80.89375305175781, -25.073514938354492, -0.20063895, -1.7478895, -1.391737
25, 3551965768, -174.65139770507812, 80.85359191894531, -25.501522064208984, -0.4083263, -1.7361165, -1.1235237
26, 3551982435, -174.71925354003906, 80.76062774658203, -25.824445724487305, -0.7284874, -1.6671022, -0.67790127
27, 3551999102, -174.71229553222656, 80.62103271484375, -26.053205490112305, -0.97001094, -1.7187177, -0.36667633
28, 3552015769, -174.5821990966797, 80.42410278320312, -26.11193084716797, -1.1569778, -1.6562607, 0.0037517548
29, 3552032436, -174.36416625976562, 80.17816925048828, -26.008872985839844, -1.2772088, -1.5104756, 0.32394505
30, 3552049103, -174.13177490234375, 79.90247344970703, -25.83928871154785, -1.2325823, -1.4525936, 0.46463203
31, 3552065770, -173.88706970214844, 79.62208557128906, -25.64217185974121, -1.073279, -1.4995171, 0.6385317
32, 3552082437, -173.60926818847656, 79.37051391601562, -25.457674026489258, -0.89666164, -1.5023962, 0.65920925
33, 3552099104, -173.26007080078125, 79.18204498291016, -25.302080154418945, -0.6011761, -1.4750286, 0.29370308
34, 3552115771, -172.739501953125, 79.07144165039062, -25.103595733642578, -0.38811618, -1.3222907, -0.28236103
35, 3552132438, -172.0686492919922, 79.00585174560547, -24.890634536743164, -0.34472588, -1.1205918, -0.73356247
36, 3552149105, -171.25999450683594, 78.95015716552734, -24.670578002929688, -0.37057993, -0.89183235, -0.9804621
37, 3552165772, -170.20799255371094, 78.88077545166016, -24.306432723999023, -0.4393166, -0.72229713, -1.0086565
38, 3552182439, -168.89288330078125, 78.76697540283203, -23.739107131958008, -0.5974802, -0.7278938, -1.003603
39, 3552199106, -167.32278442382812, 78.58329772949219, -22.887847900390625, -0.91540617, -0.6855385, 0.100367546
40, 3552215773, -165.96737670898438, 78.25735473632812, -22.334760665893555, -1.1549864, -0.021666452, 1.285347
41, 3552232440, -164.96212768554688, 77.83548736572266, -22.322769165039062, -0.7310435, 0.41364, 0.35532665
42, 3552249107, -164.04507446289062, 77.41553497314453, -22.403139114379883, -0.3588704, -0.04218997, -0.45535183
43, 3552265774, -163.4289093017578, 77.00336456298828, -22.614717483520508, -0.35627985, -0.24905713, -0.7875576
44, 3552282441, -163.2871551513672, 76.61465454101562, -23.06761360168457, 0.0076695676, -0.006863524, -1.4013586
45, 3552299108, -163.41197204589844, 76.2669448852539, -23.5473575592041, 0.24288577, 0.056035593, -1.6042681
46, 3552315775, -163.6930389404297, 75.9664306640625, -23.97818946838379, 0.09356023, -0.07359164, -1.3119822
47, 3552332442, -164.01052856445312, 75.72111511230469, -24.257280349731445, 0.022363812, -0.1310633, -1.1085844
48, 3552349109, -164.3129425048828, 75.47463989257812, -24.351421356201172, -0.038322918, -0.031034214, -1.1084604
49, 3552365776, -164.653564453125, 75.19479370117188, -24.377201080322266, -0.06104767, 0.06306654, -1.1483593
50, 3552382443, -165.0758819580078, 74.9034652709961, -24.441696166992188, 0.026091728, 0.30247515, -1.0497303
51, 3552399110, -165.47698974609375, 74.6319580078125, -24.533161163330078, 0.2788565, 0.4861476, -0.8394728
52, 3552415777, -165.74708557128906, 74.39669799804688, -24.587371826171875, 0.3566913, 0.49582696, -0.7213049
53, 3552432444, -165.90284729003906, 74.17430877685547, -24.558528900146484, 0.19325846, 0.37036544, -0.68556976
54, 3552449111, -166.0026397705078, 73.95606994628906, -24.42018699645996, -0.018921657, 0.23407093, -0.62809753
55, 3552465778, -166.01182556152344, 73.76202392578125, -24.12018585205078, -0.0067399214, 0.0347528, -0.6966047
56, 3552482445, -165.94076538085938, 73.61066436767578, -23.689075469970703, 0.11825942, -0.14944646, -0.79331017
57, 3552499112, -165.8258514404297, 73.51219177246094, -23.191761016845703, 0.2596151, -0.26810995, -0.9180479
58, 3552515779, -165.7024383544922, 73.46075439453125, -22.67793846130371, 0.3467681, -0.33897126, -0.9616451
59, 3552532446, -165.56832885742188, 73.4406967163086, -22.15643310546875, 0.38900015, -0.3767939, -0.7916088
60, 3552549113, -165.3988037109375, 73.43985748291016, -21.626806259155273, 0.408846, -0.3802752, -0.5558901
61, 3552565780, -165.1915283203125, 73.45100402832031, -21.09942054748535, 0.46956652, -0.41448846, -0.4463501
62, 3552582447, -164.97682189941406, 73.47492980957031, -20.624988555908203, 0.5481822, -0.4328353, -0.42835236
63, 3552599114, -164.77520751953125, 73.52345275878906, -20.220867156982422, 0.62539464, -0.5696952, -0.34896374
64, 3552615781, -164.58706665039062, 73.62067413330078, -19.87112808227539, 0.7151372, -0.7761321, -0.522686
65, 3552632448, -164.44383239746094, 73.76432800292969, -19.55916976928711, 0.7978673, -0.93927217, -0.97688866
66, 3552649115, -164.3732452392578, 73.93408203125, -19.26747703552246, 0.75049627, -0.93623966, -1.1462164
67, 3552665782, -164.33688354492188, 74.1114501953125, -18.992795944213867, 0.6957671, -0.7038006, -0.92653465
68, 3552682449, -164.24029541015625, 74.27830505371094, -18.731252670288086, 0.6269677, -0.47295722, -0.58466244
69, 3552699116, -164.03323364257812, 74.42322540283203, -18.483638763427734, 0.4044904, -0.34467664, -0.12722015
70, 3552715783, -163.7317657470703, 74.54792785644531, -18.225238800048828, 0.088966034, -0.3386445, 0.30650902
71, 3552732450, -163.34132385253906, 74.6491928100586, -17.90326499938965, -0.03700349, -0.3259629, 0.5512514
72, 3552749117, -162.88475036621094, 74.72933959960938, -17.51123809814453, -0.024988972, -0.24460353, 0.4713869
73, 3552765784, -162.38497924804688, 74.81706237792969, -17.05119514465332, 0.12319889, -0.18067983, 0.017724037
74, 3552782451, -161.8601837158203, 74.94042205810547, -16.527849197387695, 0.27881324, -0.08987724, -0.4426813
75, 3552799118, -161.27459716796875, 75.10552978515625, -15.94287395477295, 0.5012104, 0.118566245, -0.7716894
76, 3552815785, -160.5692901611328, 75.30460357666016, -15.30457592010498, 0.62819374, 0.26591638, -1.1184912
77, 3552832452, -159.7458953857422, 75.52134704589844, -14.6061429977417, 0.47047287, 0.18750703, -1.261673
78, 3552849119, -158.81446838378906, 75.7332992553711, -13.807665824890137, 0.24573699, 0.029289138, -0.96372414
79, 3552865786, -157.75894165039062, 75.92414093017578, -12.856593132019043, 0.051775716, -0.016856564, -0.46053314
80, 3552882453, -156.61302185058594, 76.08480834960938, -11.787795066833496, 0.016046777, 0.010640446, 0.025687218
81, 3552899120, -155.35765075683594, 76.23480224609375, -10.60563850402832, 0.153045, 0.024006644, 0.24417496
82, 3552915787, -153.9747314453125, 76.38591003417969, -9.294234275817871, 0.32595924, -0.027941132, 0.2547531
83, 3552932454, -152.480224609375, 76.55641174316406, -7.873585224151611, 0.45405516, -0.07153007, 0.23570728
84, 3552949121, -150.8583526611328, 76.74845123291016, -6.333604335784912, 0.56167907, -0.11524395, 0.1283741
85, 3552965788, -149.1063995361328, 76.96249389648438, -4.685632228851318, 0.6007218, -0.114930585, -0.07265186
86, 3552982455, -147.2544403076172, 77.18477630615234, -2.965435743331909, 0.49531147, -0.08556143, -0.26804256
87, 3552999122, -145.3533172607422, 77.39160919189453, -1.2086089849472046, 0.2663557, -0.113806985, -0.23159504
88, 3553015789, -143.4863739013672, 77.55361938476562, 0.5350481867790222, 0.03308299, -0.13037108, -0.06308174
89, 3553032456, -141.72508239746094, 77.64946746826172, 2.2261359691619873, -0.12909812, -0.080257244, -0.006167412
90, 3553049123, -140.0758819580078, 77.68464660644531, 3.8604254722595215, -0.18076074, -0.016170045, 0.056747437
91, 3553065790, -138.5188446044922, 77.68003845214844, 5.443061828613281, -0.16695595, 0.02494646, 0.16395092
92, 3553082457, -137.01979064941406, 77.66448211669922, 6.988349914550781, -0.13733296, 0.10813691, 0.21943188
93, 3553099124, -135.486328125, 77.65863800048828, 8.55721664428711, -0.13430391, 0.18933424, 0.16763973
94, 3553115791, -133.86549377441406, 77.66948699951172, 10.189679145812988, -0.14015682, 0.24117137, 0.07494354
95, 3553132458, -132.1507568359375, 77.6967544555664, 11.903858184814453, -0.1713053, 0.29715434, -0.054502487
96, 3553149125, -130.3339385986328, 77.72989654541016, 13.712963104248047, -0.19855556, 0.34166726, -0.19616222
97, 3553165792, -128.4232940673828, 77.75709533691406, 15.60555362701416, -0.26156753, 0.43576422, -0.23557949
98, 3553182459, -126.43688201904297, 77.77342224121094, 17.561853408813477, -0.34065968, 0.4932647, -0.23151398
99, 3553199126, -124.41063690185547, 77.76918029785156, 19.540403366088867, -0.35946694, 0.49950978, -0.26198006
100, 3553215793, -122.36740112304688, 77.7344741821289, 21.52194595336914, -0.39235777, 0.49530494, -0.3082657
101, 3553232460, -120.32100677490234, 77.67302703857422, 23.49778938293457, -0.42344043, 0.50235754, -0.32511044
102, 3553249127, -118.31365966796875, 77.58916473388672, 25.433591842651367, -0.41508105, 0.49566767, -0.26428604
103, 3553265794, -116.42426300048828, 77.4864273071289, 27.257535934448242, -0.4258954, 0.53791535, -0.1714325
104, 3553282461, -114.64936065673828, 77.36785125732422, 28.96018409729004, -0.40704688, 0.5991978, -0.13157082
105, 3553299128, -112.96989440917969, 77.24244689941406, 30.55646324157715, -0.3669068, 0.5854866, -0.06720257
106, 3553315795, -111.40884399414062, 77.11569213867188, 32.03123092651367, -0.3838668, 0.5370035, 0.15779114
107, 3553332462, -109.96906280517578, 76.99522399902344, 33.369667053222656, -0.38353688, 0.54307413, 0.27784634
108, 3553349129, -108.66149139404297, 76.88089752197266, 34.588592529296875, -0.43253645, 0.54679346, 0.28408718
109, 3553365796, -107.50588989257812, 76.76628112792969, 35.695274353027344, -0.4153438, 0.55768317, 0.37197495
110, 3553382463, -106.50235748291016, 76.64908599853516, 36.67753601074219, -0.34231776, 0.61405814, 0.46669197
111, 3553399130, -105.56803131103516, 76.53145599365234, 37.57075881958008, -0.20766103, 0.6217616, 0.42483997
112, 3553415797, -104.62983703613281, 76.4234848022461, 38.437828063964844, -0.09711211, 0.56632906, 0.325984
113, 3553432464, -103.68644714355469, 76.3307876586914, 39.31049346923828, -0.005712209, 0.49067017, 0.26586628
114, 3553449131, -102.79158782958984, 76.24964904785156, 40.16410827636719, 0.077227525, 0.47685975, 0.23733616
115, 3553465798, -101.92149353027344, 76.17227935791016, 41.00122833251953, 0.23708104, 0.5472954, 0.15862465
116, 3553482465, -100.99559783935547, 76.10721588134766, 41.8831672668457, 0.43910384, 0.6513647, 0.060513496
117, 3553499132, -99.92230987548828, 76.05722045898438, 42.87412643432617, 0.5585045, 0.6728037, -0.017356873
118, 3553515799, -98.74983978271484, 76.02268981933594, 43.93326950073242, 0.53294605, 0.6849154, -0.18988132
119, 3553532466, -97.57205200195312, 75.98759460449219, 44.99838638305664, 0.50900173, 0.65314305, -0.37210178
120, 3553549133, -96.45079803466797, 75.94645690917969, 46.03880310058594, 0.49644855, 0.6585321, -0.55961514
121, 3553565800, -95.43429565429688, 75.89859771728516, 47.02217102050781, 0.46393377, 0.73147076, -0.72641563
122, 3553582467, -94.5903091430664, 75.84577941894531, 47.867244720458984, 0.4560432, 0.83839595, -0.6949825
123, 3553599134, -93.97795104980469, 75.78813171386719, 48.498897552490234, 0.4490227, 0.88709056, -0.6041889
124, 3553615801, -93.5838851928711, 75.72563171386719, 48.91183090209961, 0.4705895, 0.9665713, -0.6174097
125, 3553632468, -93.34756469726562, 75.6610107421875, 49.14919662475586, 0.45905414, 0.95381695, -0.60955334
126, 3553649135, -93.19387817382812, 75.59574890136719, 49.277015686035156, 0.4245613, 0.83373505, -0.5341425
127, 3553665802, -93.1072769165039, 75.53345489501953, 49.339107513427734, 0.34974983, 0.68901175, -0.5476494
128, 3553682469, -93.09722137451172, 75.48197937011719, 49.34786605834961, 0.3181771, 0.62816447, -0.63663197
129, 3553699136, -93.15727996826172, 75.44304656982422, 49.32088851928711, 0.2517964, 0.6394965, -0.7039442
130, 3553715803, -93.26104736328125, 75.41182708740234, 49.27265167236328, 0.19645476, 0.631587, -0.64390373
131, 3553732470, -93.36376953125, 75.3847427368164, 49.208412170410156, 0.14286876, 0.5614183, -0.493145
132, 3553749137, -93.41605377197266, 75.35965728759766, 49.17752456665039, 0.015754031, 0.3802505, -0.4420452
133, 3553765804, -93.45564270019531, 75.33771514892578, 49.18678665161133, -0.12160236, 0.15979747, -0.47786045
134, 3553782471, -93.53849792480469, 75.32005310058594, 49.20747756958008, -0.17109272, 0.015467543, -0.36194897
135, 3553799138, -93.61874389648438, 75.31040954589844, 49.26043701171875, -0.14412911, -0.042873807, -0.27329445
136, 3553815805, -93.6103744506836, 75.31446075439453, 49.39033889770508, -0.07373882, -0.017132267, -0.29004765
137, 3553832472, -93.48189544677734, 75.33893585205078, 49.615230560302734, -0.058451097, -0.061447512, -0.34548855
138, 3553849139, -93.2275619506836, 75.3821792602539, 49.946102142333984, -0.09767821, -0.18052962, -0.28721333
139, 3553865806, -92.91586303710938, 75.43307495117188, 50.327667236328125, -0.13872167, -0.31939152, -0.12727165
140, 3553882473, -92.57484436035156, 75.49925231933594, 50.71890640258789, -0.106743835, -0.37423736, -0.103705406
141, 3553899140, -92.18634796142578, 75.58087158203125, 51.13386917114258, -0.047844123, -0.35754338, -0.26013565
142, 3553915807, -91.72522735595703, 75.67463684082031, 51.599388122558594, 0.0023095314, -0.43024915, -0.32764053
143, 3553932474, -91.18433380126953, 75.77863311767578, 52.13075637817383, 0.0091835605, -0.4811285, -0.345706
144, 3553949141, -90.63197326660156, 75.89054107666016, 52.681297302246094, -0.007909118, -0.51860553, -0.40487576
145, 3553965808, -90.11663818359375, 76.00685119628906, 53.22108459472656, -0.029329566, -0.47136053, -0.40415668
146, 3553982475, -89.68135833740234, 76.11956024169922, 53.68700408935547, -0.034593325, -0.41762546, -0.21531296
147, 3553999142, -89.34723663330078, 76.23084259033203, 54.01911544799805, 0.010073505, -0.37089384, 0.063269615
148, 3554015809, -89.02738189697266, 76.3592300415039, 54.25749588012695, 0.0500797, -0.32560787, 0.13344479
149, 3554032476, -88.67655944824219, 76.50719451904297, 54.462249755859375, 0.0966667, -0.32573572, -0.02686119
150, 3554049143, -88.36568450927734, 76.66716003417969, 54.62373733520508, 0.108676665, -0.3828596, -0.19566345
151, 3554065810, -88.15182495117188, 76.83704376220703, 54.737369537353516, 0.10571012, -0.39893553, -0.20601177
152, 3554082477, -88.061279296875, 77.01366424560547, 54.79074478149414, 0.13329606, -0.34851974, -0.122982025
153, 3554099144, -88.04792022705078, 77.19889068603516, 54.80967712402344, 0.14176826, -0.26299563, 0.0027418137
154, 3554115811, -88.0429458618164, 77.39628601074219, 54.84347152709961, 0.19309868, -0.254998, 0.16978645
155, 3554132478, -88.02255249023438, 77.60030364990234, 54.91825485229492, 0.20874847, -0.22129326, 0.2227974
156, 3554149145, -88.04901123046875, 77.80812072753906, 54.99126434326172, 0.14618966, -0.12954743, 0.06443119
157, 3554165812, -88.17627716064453, 78.00390625, 55.03388214111328, 0.087751016, -0.11863978, -0.17434978
158, 3554182479, -88.38021850585938, 78.17512512207031, 55.0603141784668, 0.06848082, -0.18071917, -0.37176895
159, 3554199146, -88.6561508178711, 78.31800842285156, 55.070438385009766, 0.021780612, -0.1991648, -0.6168299
160, 3554215813, -89.17131042480469, 78.42437744140625, 54.905391693115234, -0.15992334, -0.18435349, -0.6958523
161, 3554232480, -90.08562469482422, 78.48833465576172, 54.37028121948242, -0.42944664, -0.06422075, -0.54463863
162, 3554249147, -91.40923309326172, 78.50479125976562, 53.37051773071289, -0.5663767, 0.108961895, -0.23877239
163, 3554265814, -93.08666229248047, 78.48595428466797, 51.88159942626953, -0.5854923, 0.31197, 0.079351425
164, 3554282481, -94.98835754394531, 78.4621353149414, 49.971221923828125, -0.660313, 0.39218578, 0.28219986
165, 3554299148, -97.01580810546875, 78.45413970947266, 47.73762512207031, -0.73259777, 0.40504932, 0.25050163
166, 3554315815, -99.15000915527344, 78.45635986328125, 45.27012634277344, -0.75934356, 0.3877048, -0.05653
167, 3554332482, -101.42538452148438, 78.44984436035156, 42.620792388916016, -0.7917608, 0.37063777, -0.21762848
168, 3554349149, -103.80522918701172, 78.41786193847656, 39.9180793762207, -0.8406915, 0.29076028, -0.17022991
169, 3554365816, -106.19451904296875, 78.37361145019531, 37.29111099243164, -0.8236613, 0.19333233, 0.06382942
170, 3554382483, -108.43878936767578, 78.3294677734375, 34.85647201538086, -0.6251305, 0.26620695, 0.09138012
171, 3554399150, -110.37102508544922, 78.2791976928711, 32.823570251464844, -0.4403051, 0.22497116, -0.16718674
172, 3554415817, -112.02921295166016, 78.22318267822266, 31.195266723632812, -0.44562542, 0.17357993, -0.3290329
173, 3554432484, -113.593994140625, 78.16215515136719, 29.785594940185547, -0.31406745, 0.27386507, -0.27731514
174, 3554449151, -115.02747344970703, 78.08651733398438, 28.553192138671875, -0.11009779, 0.4548616, -0.12816238
175, 3554465818, -116.09127807617188, 77.99217224121094, 27.632911682128906, 0.03655631, 0.41266263, 0.15799522
176, 3554482485, -116.60113525390625, 77.89063262939453, 27.16366958618164, 0.06405859, 0.168434, 0.3165474
177, 3554499152, -116.67276000976562, 77.78031158447266, 27.07183837890625, 0.0130586885, -0.09864767, 0.18797207
178, 3554515819, -116.3454818725586, 77.68109130859375, 27.336530685424805, 0.014685667, -0.1988749, -0.12813282
179, 3554532486, -115.86749267578125, 77.60517883300781, 27.7060489654541, 0.11396088, -0.15320651, -0.38720894
180, 3554549153, -115.24088287353516, 77.55763244628906, 28.150962829589844, 0.14671859, -0.028585967, -0.3780756
181, 3554565820, -114.35651397705078, 77.53071594238281, 28.796850204467773, 0.047496222, 0.02313739, -0.43427467
182, 3554582487, -113.20632934570312, 77.51936340332031, 29.70075035095215, -0.17913435, -0.0359049, -0.7039404
183, 3554599154, -112.0354232788086, 77.50745391845703, 30.68977928161621, -0.38709873, -0.14376263, -0.817029
184, 3554615821, -111.07381439208984, 77.46435546875, 31.508970260620117, -0.26838887, -0.0976328, -0.57054615
185, 3554632488, -110.17450714111328, 77.39832305908203, 32.24696350097656, -0.019594764, 0.053257033, -0.4693222
186, 3554649155, -109.11099243164062, 77.33033752441406, 33.11784744262695, 0.009547635, 0.111549504, -0.62374973
187, 3554665822, -107.94922637939453, 77.27326965332031, 34.048587799072266, -0.015779456, 0.07493607, -0.6938896
188, 3554682489, -106.83014678955078, 77.21553039550781, 34.91681671142578, 5.744283E-4, 0.088447206, -0.66058064
189, 3554699156, -105.84452056884766, 77.14962768554688, 35.64531326293945, -0.06500131, 0.07962649, -0.46367168
190, 3554715823, -104.80540466308594, 77.09503173828125, 36.420352935791016, -0.083660506, 0.17202184, -0.25879574
191, 3554732490, -103.72960662841797, 77.03840637207031, 37.268192291259766, -0.0662208, 0.2679234, -0.14292145
192, 3554749157, -102.74198150634766, 76.9715576171875, 38.07035446166992, 0.0041072182, 0.27060243, 0.009159088
193, 3554765824, -101.82006072998047, 76.90087890625, 38.81859588623047, 0.07712549, 0.26241806, 0.09591389
194, 3554782491, -100.9562759399414, 76.83512878417969, 39.536014556884766, 0.0592715, 0.1469781, 0.1321497
195, 3554799158, -100.09902954101562, 76.77653503417969, 40.26719665527344, 0.07640081, 0.05534136, 0.16928005
196, 3554815825, -99.2611083984375, 76.71772003173828, 41.01966094970703, 0.16983193, 0.029361581, 0.11939335
197, 3554832492, -98.49940490722656, 76.66104888916016, 41.7457275390625, 0.22534883, 0.06721325, 0.06661034
198, 3554849159, -97.77632141113281, 76.61068725585938, 42.458988189697266, 0.31863052, 0.14906548, 0.008090973
199, 3554865826, -97.07052612304688, 76.55298614501953, 43.1546630859375, 0.42801714, 0.20255259, -0.12957478
200, 3554882493, -96.36341094970703, 76.49243927001953, 43.86700439453125, 0.34366325, 0.13413258, -0.31514835
201, 3554899160, -95.70993041992188, 76.43041229248047, 44.5523681640625, 0.2541845, 0.061482158, -0.46194458
202, 3554915827, -95.24217987060547, 76.36331176757812, 45.09742736816406, 0.1606097, 0.009607257, -0.48784447
203, 3554932494, -94.94319915771484, 76.2857437133789, 45.476253509521484, 0.17967688, 0.09493065, -0.41604233
204, 3554949161, -94.7311019897461, 76.19872283935547, 45.745567321777344, 0.19919781, 0.14154315, -0.3438282
205, 3554965828, -94.5682601928711, 76.11902618408203, 45.900596618652344, 0.2555245, 0.1579443, -0.34325504
206, 3554982495, -94.42718505859375, 76.0527114868164, 45.98396301269531, 0.20110701, 0.141283, -0.29222965
207, 3554999162, -94.2831802368164, 75.99986267089844, 46.05012130737305, 0.085608706, 0.035110757, -0.2973442
208, 3555015829, -94.1745834350586, 75.95233917236328, 46.089759826660156, -0.013557513, -0.011076408, -0.3210678
209, 3555032496, -94.12631225585938, 75.91218566894531, 46.115394592285156, -0.066396534, -0.035489388, -0.28954315
210, 3555049163, -94.18123626708984, 75.88629913330078, 46.09228515625, -0.13132448, -0.044459634, -0.18345165
211, 3555065830, -94.34111785888672, 75.86966705322266, 46.004295349121094, -0.11189427, 0.010328981, -0.13614178
212, 3555082497, -94.58198547363281, 75.85009765625, 45.83979415893555, -0.029469177, 0.0622982, -0.13440609
213, 3555099164, -94.81585693359375, 75.84097290039062, 45.651309967041016, 0.06649382, 0.119446665, -0.09789276
214, 3555115831, -94.99478912353516, 75.84833526611328, 45.4855842590332, 0.12466161, 0.10820508, -0.20679379
215, 3555132498, -95.12538146972656, 75.87651062011719, 45.358741760253906, 0.04795923, 0.053196084, -0.3410635
216, 3555149165, -95.28211975097656, 75.91368865966797, 45.22492980957031, 6.0504954E-4, 0.014099197, -0.3675356
217, 3555165832, -95.51737213134766, 75.95365142822266, 45.05622100830078, -0.05279126, 0.026512632, -0.35677624
218, 3555182499, -95.7977294921875, 75.989501953125, 44.87550735473633, -0.010457389, 0.061268255, -0.2802019
219, 3555199166, -96.06793975830078, 76.01306915283203, 44.70384979248047, 0.06641682, 0.111244634, -0.22270393
220, 3555215833, -96.29904174804688, 76.0296630859375, 44.52742385864258, 0.14145218, 0.20991242, -0.113677025
221, 3555232500, -96.44538116455078, 76.05357360839844, 44.3937873840332, 0.10863266, 0.23532316, -0.17763615
222, 3555249167, -96.52465057373047, 76.08545684814453, 44.29447937011719, 0.080323346, 0.21837282, -0.27761555
223, 3555265834, -96.58501434326172, 76.12310791015625, 44.20912170410156, 0.06693101, 0.26305777, -0.29803276
224, 3555282501, -96.66712951660156, 76.1634750366211, 44.10459518432617, 0.074611925, 0.20869918, -0.2660799
225, 3555299168, -96.76713562011719, 76.19654846191406, 43.993160247802734, 0.063707, 0.1842909, -0.21128464
226, 3555315835, -96.81452941894531, 76.21723937988281, 43.94533920288086, 0.054308284, 0.23774894, -0.18609428
227, 3555332502, -96.81937408447266, 76.23567962646484, 43.951072692871094, 0.042825416, 0.27279058, -0.2660656
228, 3555349169, -96.8436279296875, 76.25798034667969, 43.948116302490234, 0.037472114, 0.27712902, -0.2844782
229, 3555365836, -96.88249969482422, 76.27147674560547, 43.93122482299805, 0.06241577, 0.304565, -0.21725273
230, 3555382503, -96.89071655273438, 76.27874755859375, 43.924442291259766, 0.11219216, 0.24695767, -0.20747471
231, 3555399170, -96.8819351196289, 76.27981567382812, 43.937164306640625, 0.11910391, 0.22972952, -0.28816795
232, 3555415837, -96.92144775390625, 76.27935028076172, 43.906429290771484, 0.07653877, 0.2657292, -0.24001694
233, 3555432504, -96.94691467285156, 76.28113555908203, 43.88690948486328, 0.05713226, 0.24361996, -0.17551327
234, 3555449171, -96.94134521484375, 76.27943420410156, 43.88331985473633, 0.036569513, 0.18923232, -0.16133213
235, 3555465838, -96.9277114868164, 76.27071380615234, 43.88979721069336, 0.038524806, 0.12591222, -0.1562357
236, 3555482505, -96.89823150634766, 76.26195526123047, 43.9339714050293, -0.0068591097, 0.08174383, -0.20737553
237, 3555499172, -96.86701965332031, 76.2496337890625, 43.99776840209961, -0.0256941, 0.10955241, -0.24324417
238, 3555515839, -96.85320281982422, 76.23533630371094, 44.054237365722656, 0.018575829, 0.17832023, -0.24564648
239, 3555532506, -96.86397552490234, 76.22342681884766, 44.073036193847656, 0.09649445, 0.1461207, -0.17869568
240, 3555549173, -96.78363037109375, 76.21631622314453, 44.13044738769531, 0.10064989, 0.14979793, -0.19484043
241, 3555565840, -96.6277847290039, 76.21480560302734, 44.24880599975586, 0.019096946, 0.103215374, -0.2517538
242, 3555582507, -96.50323486328125, 76.21903991699219, 44.3560905456543, -0.0590267, 0.06747096, -0.278224
243, 3555599174, -96.44800567626953, 76.22432708740234, 44.43402862548828, -0.10656187, 0.07668864, -0.30961418
244, 3555615841, -96.48756408691406, 76.22701263427734, 44.454593658447266, -0.051118363, 0.097623974, -0.34667587
245, 3555632508, -96.55036926269531, 76.22904205322266, 44.4486083984375, 0.02424093, 0.15952857, -0.32543278
246, 3555649175, -96.61988830566406, 76.23583221435547, 44.42263412475586, 0.04336241, 0.17334034, -0.3219328
247, 3555665842, -96.7046890258789, 76.24449157714844, 44.35962677001953, 0.044830106, 0.16218458, -0.27380848
248, 3555682509, -96.7650375366211, 76.2558364868164, 44.29863739013672, 0.017769331, 0.14388767, -0.21874428
249, 3555699176, -96.75791931152344, 76.27420043945312, 44.29555130004883, 0.0017925181, 0.11564627, -0.2562294
250, 3555715843, -96.73751068115234, 76.28837585449219, 44.33295440673828, -0.05990734, 0.04548846, -0.28395176
251, 3555732510, -96.76251983642578, 76.294921875, 44.36423873901367, -0.07305264, 0.049224928, -0.2099886
252, 3555749177, -96.80425262451172, 76.29180908203125, 44.3895149230957, -0.01033116, 0.060292844, -0.103461266
253, 3555765844, -96.78998565673828, 76.288818359375, 44.442996978759766, 0.022407398, 0.14681336, -0.13077259
254, 3555782511, -96.73081970214844, 76.28646850585938, 44.504512786865234, 0.11053107, 0.17419818, -0.17427158
255, 3555799178, -96.62165832519531, 76.29142761230469, 44.575958251953125, 0.10887277, 0.13194193, -0.2007246
256, 3555815845, -96.45075225830078, 76.30036926269531, 44.698612213134766, 0.018935906, 0.039630413, -0.30009174
257, 3555832512, -96.313232421875, 76.30253601074219, 44.80602264404297, -0.06348774, 0.015631154, -0.2751627
258, 3555849179, -96.22008514404297, 76.29597473144531, 44.89596176147461, -0.04895286, -0.009127598, -0.18151951
259, 3555865846, -96.18009948730469, 76.28176879882812, 44.951229095458984, 0.009104142, 0.030710625, -0.16311836
260, 3555882513, -96.12881469726562, 76.26579284667969, 45.014896392822266, 0.05707297, 0.11199005, -0.1997881
261, 3555899180, -96.051025390625, 76.2654037475586, 45.085060119628906, 0.051750403, 0.14627671, -0.25801182
262, 3555915847, -95.92887115478516, 76.27652740478516, 45.18115234375, -0.007625815, 0.08902431, -0.2781906
263, 3555932514, -95.84004211425781, 76.28105926513672, 45.25434875488281, -0.02770566, 0.024807256, -0.27200794
264, 3555949181, -95.81263732910156, 76.28515625, 45.29530334472656, -0.008418225, -0.04647706, -0.24225044
265, 3555965848, -95.7999496459961, 76.2879867553711, 45.35957336425781, -0.038978424, -0.037350133, -0.2217989
266, 3555982515, -95.75753784179688, 76.28807830810547, 45.465232849121094, -5.079332E-4, 0.0050437935, -0.20685863
267, 3555999182, -95.71886444091797, 76.28614807128906, 45.551944732666016, 0.02718767, 0.036985807, -0.1854763
268, 3556015849, -95.6717758178711, 76.28434753417969, 45.638755798339844, 0.025697062, 0.025673592, -0.2417345
269, 3556032516, -95.60604095458984, 76.27950286865234, 45.73701095581055, 0.028349632, 0.020810936, -0.30772686
270, 3556049183, -95.52904510498047, 76.27772521972656, 45.83271789550781, 0.080182925, 0.015607909, -0.31968498
271, 3556065850, -95.44744110107422, 76.28353881835938, 45.91837692260742, 0.041609507, 0.052555047, -0.31535053
272, 3556082517, -95.35084533691406, 76.29122161865234, 46.007118225097656, -0.012073276, 0.03070621, -0.266428
273, 3556099184, -95.27392578125, 76.29772186279297, 46.07960510253906, -0.05121129, 0.012699112, -0.22490883
274, 3556115851, -95.2379379272461, 76.30107879638672, 46.11783981323242, -0.024212934, 0.005228415, -0.24746227
275, 3556132518, -95.24332427978516, 76.30976104736328, 46.131103515625, -0.053925294, 0.0153338825, -0.28653145
276, 3556149185, -95.28137969970703, 76.32070922851562, 46.13055419921875, -0.04066321, 0.052124564, -0.286582
277, 3556165852, -95.33512878417969, 76.3341293334961, 46.13018798828125, -0.032249454, 0.07017882, -0.22191715
278, 3556182519, -95.38571166992188, 76.35016632080078, 46.129600524902344, -0.03589646, 0.072096564, -0.1253357
279, 3556199186, -95.41828155517578, 76.36431121826172, 46.131587982177734, 0.023384875, 0.071115114, -0.064725876
280, 3556215853, -95.40213775634766, 76.3787612915039, 46.169681549072266, -8.167791E-4, 0.05593009, -0.11972904
281, 3556232520, -95.33575439453125, 76.3923110961914, 46.26091766357422, -0.05713254, 0.05421977, -0.15417576
282, 3556249187, -95.27777862548828, 76.40119934082031, 46.39078140258789, -0.077938855, 0.05371128, -0.24785614
283, 3556265854, -95.2222900390625, 76.4032211303711, 46.52130126953125, 0.018290121, 0.14668886, -0.25052357
284, 3556282521, -95.1994857788086, 76.4037857055664, 46.570457458496094, 0.14379689, 0.23473085, -0.15655899
285, 3556299188, -95.0827407836914, 76.4148178100586, 46.64970016479492, 0.08415006, 0.17113337, -0.16669273
286, 3556315855, -94.89533996582031, 76.43009185791016, 46.779624938964844, -0.0056837667, 0.05579107, -0.28107357
287, 3556332522, -94.79814147949219, 76.44586181640625, 46.848533630371094, -0.0699001, 0.04785703, -0.33648396
288, 3556349189, -94.80260467529297, 76.4524154663086, 46.846046447753906, -0.044646658, 0.10619301, -0.3040924
289, 3556365856, -94.84728240966797, 76.4542007446289, 46.81050491333008, -0.017998492, 0.16274582, -0.23554611
290, 3556382523, -94.79452514648438, 76.46280670166016, 46.87250900268555, -0.050981585, 0.15665038, -0.26054096
291, 3556399190, -94.73310089111328, 76.47827911376953, 46.949092864990234, -0.122203976, 0.09768388, -0.32006264
292, 3556415857, -94.73202514648438, 76.48497009277344, 46.98031997680664, -0.11368651, 0.07533057, -0.25682735
293, 3556432524, -94.76214599609375, 76.4841537475586, 47.009761810302734, -0.0995905, 0.09267138, -0.20830345
294, 3556449191, -94.7416000366211, 76.48267364501953, 47.09761428833008, -0.053637244, 0.11471892, -0.15603447
295, 3556465858, -94.67453002929688, 76.47944641113281, 47.22138595581055, 0.002327161, 0.18250592, -0.16041088
296, 3556482525, -94.5764389038086, 76.47470092773438, 47.36608123779297, -6.8830815E-4, 0.19279557, -0.21845436
297, 3556499192, -94.45664978027344, 76.4728775024414, 47.51679229736328, -0.0010003322, 0.13012098, -0.30035973
298, 3556515859, -94.36791229248047, 76.46813201904297, 47.622867584228516, 0.07356437, 0.033166192, -0.29039288
299, 3556532526, -94.2815933227539, 76.45822143554688, 47.725337982177734, 0.01829923, -0.016505314, -0.20033169
300, 3556549193, -94.17961120605469, 76.44790649414062, 47.84309005737305, -0.026723266, 0.021379462, -0.21955395
301, 3556565860, -94.13384246826172, 76.43080139160156, 47.913818359375, 0.03825368, 0.07469243, -0.20645523
302, 3556582527, -94.08361053466797, 76.41193389892578, 47.96836853027344, 0.074642316, 0.122693636, -0.22011757
303, 3556599194, -93.99060821533203, 76.39547729492188, 48.02348327636719, 0.13293098, 0.1020397, -0.23085785
304, 3556615861, -93.86568450927734, 76.38704681396484, 48.07684326171875, 0.04466225, 0.009400507, -0.21195507
305, 3556632528, -93.70885467529297, 76.38543701171875, 48.16401672363281, -0.009297916, -0.07720093, -0.20645523
306, 3556649195, -93.65397644042969, 76.3833999633789, 48.1938591003418, -0.06836574, -0.12682013, -0.20739365
307, 3556665862, -93.6891098022461, 76.37284851074219, 48.16973876953125, -0.08551371, -0.07861062, -0.1875248
308, 3556682529, -93.74844360351562, 76.3636474609375, 48.132808685302734, -0.0017306608, 7.9168286E-4, -0.19293404
309, 3556699196, -93.76736450195312, 76.35562133789062, 48.12681198120117, -0.026386878, 0.059833523, -0.24042892
310, 3556715863, -93.74211883544922, 76.35330963134766, 48.1438102722168, -0.0024044965, 0.08001675, -0.2516985
311, 3556732530, -93.73504638671875, 76.35572052001953, 48.11447525024414, 0.042003386, 0.04583864, -0.24274063
312, 3556749197, -93.72019958496094, 76.36288452148438, 48.09651565551758, -0.018458761, -0.0083627375, -0.23556995
313, 3556765864, -93.70657348632812, 76.3686294555664, 48.08840560913086, -0.012651113, -0.016077064, -0.26453972
314, 3556782531, -93.74296569824219, 76.36988830566406, 48.04926681518555, 0.01302125, 0.034249112, -0.29261875
315, 3556799198, -93.82177734375, 76.36894989013672, 47.984683990478516, 0.026099775, 0.03751419, -0.27820396
316, 3556815865, -93.92294311523438, 76.37151336669922, 47.90395736694336, 0.032712184, 0.045029815, -0.22250557
317, 3556832532, -93.97435760498047, 76.37754821777344, 47.850772857666016, 0.050452854, 0.07493875, -0.19527245
318, 3556849199, -93.97186279296875, 76.38288116455078, 47.83406066894531, 0.004485514, 0.10317403, -0.25189304
319, 3556865866, -93.97926330566406, 76.39237213134766, 47.81886672973633, -0.08534703, 0.12874056, -0.35576153
320, 3556882533, -94.07695007324219, 76.39895629882812, 47.73361587524414, -0.1050788, 0.14150806, -0.36287785
321, 3556899200, -94.2322998046875, 76.40258026123047, 47.609718322753906, -0.079230316, 0.1571334, -0.25759506
322, 3556915867, -94.3636703491211, 76.39820861816406, 47.51162338256836, -0.06551677, 0.14834246, -0.19661522
323, 3556932534, -94.48081970214844, 76.3916015625, 47.416439056396484, 0.022254849, 0.14323336, -0.2405901
324, 3556949201, -94.60737609863281, 76.38689422607422, 47.30611801147461, 0.023321286, 0.14552549, -0.21558952
325, 3556965868, -94.69971466064453, 76.38056945800781, 47.22330856323242, -0.007147833, 0.11350256, -0.18961048
326, 3556982535, -94.72044372558594, 76.37055969238281, 47.191261291503906, -0.019204903, 0.1295738, -0.16750336
327, 3556999202, -94.69562530517578, 76.36064910888672, 47.189510345458984, -0.03745792, 0.09722746, -0.18059349
328, 3557015869, -94.65766143798828, 76.35163879394531, 47.21135330200195, -0.06453708, 0.014007334, -0.1970892
329, 3557032536, -94.64089965820312, 76.33109283447266, 47.23994827270508, -0.044355474, 0.05238406, -0.21313858
330, 3557049203, -94.66393280029297, 76.30216217041016, 47.25870895385742, -0.021456908, 0.110303864, -0.18254471
331, 3557065870, -94.65958404541016, 76.276611328125, 47.2937126159668, 0.05363009, 0.14641172, -0.17862606
332, 3557082537, -94.61335754394531, 76.257568359375, 47.34865951538086, 0.04274261, 0.117304854, -0.16985512
333, 3557099204, -94.5215835571289, 76.2402114868164, 47.431087493896484, 0.0116636325, 0.0421047, -0.17922974
334, 3557115871, -94.40936279296875, 76.217041015625, 47.52611541748047, -0.01887064, 0.07723088, -0.23239613
335, 3557132538, -94.30994415283203, 76.18315124511719, 47.6087532043457, -0.021924553, 0.12040665, -0.24750423
336, 3557149205, -94.19571685791016, 76.14417266845703, 47.689598083496094, 0.031740014, 0.1726347, -0.284791
337, 3557165872, -94.0591049194336, 76.10765075683594, 47.782745361328125, 0.040416896, 0.18558437, -0.3101654
338, 3557182539, -93.93695068359375, 76.06670379638672, 47.85524368286133, -0.011528407, 0.19181234, -0.28591347
339, 3557199206, -93.81697845458984, 76.02182006835938, 47.92478942871094, 0.023542397, 0.1606971, -0.2895975
340, 3557215873, -93.73035430908203, 75.96704864501953, 47.98165512084961, 0.023140855, 0.11947706, -0.2623062
341, 3557232540, -93.67150115966797, 75.90241241455078, 48.017738342285156, 0.06507435, 0.15805808, -0.20169735
342, 3557249207, -93.60270690917969, 75.8373031616211, 48.03649139404297, 0.12526672, 0.2548202, -0.17523098
343, 3557265874, -93.47285461425781, 75.77349090576172, 48.082977294921875, 0.106821716, 0.22777687, -0.19782257
344, 3557282541, -93.307861328125, 75.70722961425781, 48.147186279296875, 0.064811155, 0.1386395, -0.22011948
345, 3557299208, -93.18283081054688, 75.62319946289062, 48.17760467529297, 0.08260787, 0.11374351, -0.2261219
346, 3557315875, -93.08934020996094, 75.51411437988281, 48.168113708496094, 0.14955431, 0.2002028, -0.19445515
347, 3557332542, -92.98298645019531, 75.38497924804688, 48.148773193359375, 0.21486412, 0.15922639, -0.18335915
348, 3557349209, -92.81640625, 75.25221252441406, 48.180381774902344, 0.18150051, 0.13778768, -0.19817734
349, 3557365876, -92.60195922851562, 75.11673736572266, 48.26791763305664, 0.13340634, 0.13819471, -0.2690382
350, 3557382543, -92.37752532958984, 74.98468780517578, 48.372215270996094, 0.06933534, 0.122350544, -0.22632217
351, 3557399210, -92.14207458496094, 74.86336517333984, 48.48590087890625, 0.010930901, 0.119592845, -0.07653904
352, 3557415877, -91.91200256347656, 74.75578308105469, 48.62031173706055, -0.09678346, 0.035481118, -0.004152298
353, 3557432544, -91.66162109375, 74.66253662109375, 48.8243408203125, -0.210621, -0.07264495, -0.03921604
354, 3557449211, -91.44793701171875, 74.58663940429688, 49.078453063964844, -0.25138146, -0.17530479, -0.17202091
355, 3557465878, -91.29827880859375, 74.5191650390625, 49.353485107421875, -0.23802845, -0.20233689, -0.30152607
356, 3557482545, -91.1797866821289, 74.45091247558594, 49.661582946777344, -0.19419247, -0.1541209, -0.29671383
357, 3557499212, -91.05638122558594, 74.38777923583984, 49.995574951171875, -0.13888715, -0.09803613, -0.29630184
358, 3557515879, -90.9037094116211, 74.33696746826172, 50.32246398925781, -0.11270914, -0.033281527, -0.3274269
359, 3557532546, -90.72328186035156, 74.29927825927734, 50.611446380615234, -0.093589455, -0.028571662, -0.3569317
360, 3557549213, -90.5145492553711, 74.27962493896484, 50.86629104614258, -0.15067002, -0.086371, -0.344738
361, 3557565880, -90.3167724609375, 74.27395629882812, 51.08228302001953, -0.24037589, -0.14669892, -0.34673977
362, 3557582547, -90.1881103515625, 74.27582550048828, 51.21623611450195, -0.21594864, -0.123648934, -0.34075546
363, 3557599214, -90.10983276367188, 74.28455352783203, 51.27901077270508, -0.11074972, -0.048440173, -0.31604385
364, 3557615881, -90.01947021484375, 74.30660247802734, 51.325313568115234, -0.06581357, -0.007884393, -0.32124615
365, 3557632548, -89.89398193359375, 74.34619903564453, 51.3876953125, -0.07288333, -0.005030159, -0.374588
366, 3557649215, -89.77749633789062, 74.39630126953125, 51.43785095214844, -0.07675209, -0.013435811, -0.44443798
367, 3557665882, -89.71256256103516, 74.45355224609375, 51.45317459106445, -0.08777656, -0.037937302, -0.3451643
368, 3557682549, -89.6884536743164, 74.5164566040039, 51.44035720825195, -0.08905583, -0.06306865, -0.23848152
369, 3557699216, -89.66907501220703, 74.5820541381836, 51.441017150878906, -0.069807954, -0.046709962, -0.19207954
370, 3557715883, -89.65351104736328, 74.64324188232422, 51.46073532104492, -0.009474994, -0.03126365, -0.17698479
371, 3557732550, -89.64112091064453, 74.70013427734375, 51.49509811401367, 0.016151829, 0.02312465, -0.16421127
372, 3557749217, -89.65999603271484, 74.75200653076172, 51.49543380737305, 0.06808965, 0.077322744, -0.14193821
373, 3557765884, -89.67242431640625, 74.8022689819336, 51.47574996948242, 0.13392964, 0.13677227, -0.10401726
374, 3557782551, -89.64363861083984, 74.85235595703125, 51.463687896728516, 0.19249082, 0.14102955, -0.15682411
375, 3557799218, -89.5767822265625, 74.9068374633789, 51.4725456237793, 0.18154784, 0.12005752, -0.1835165
376, 3557815885, -89.49844360351562, 74.96109771728516, 51.49138259887695, 0.116174154, 0.12920927, -0.17566872
377, 3557832552, -89.4317398071289, 75.01264953613281, 51.51279830932617, 0.11923165, 0.091135174, -0.16418648
378, 3557849219, -89.40440368652344, 75.05631256103516, 51.520233154296875, 0.097810104, 0.07639628, -0.16146946
379, 3557865886, -89.3869400024414, 75.08699035644531, 51.52849197387695, 0.1414642, 0.13838492, -0.22017288
380, 3557882553, -89.42105865478516, 75.1109619140625, 51.49397277832031, 0.18087669, 0.20706934, -0.3049307
381, 3557899220, -89.51145935058594, 75.13314819335938, 51.41481399536133, 0.185695, 0.26484543, -0.3540535
382, 3557915887, -89.610595703125, 75.15440368652344, 51.31571960449219, 0.16664673, 0.28783664, -0.2668743
383, 3557932554, -89.69404602050781, 75.1758041381836, 51.209110260009766, 0.13671578, 0.25313377, -0.17924309
384, 3557949221, -89.76329803466797, 75.19700622558594, 51.11873245239258, 0.07494356, 0.18745786, -0.23445988
385, 3557965888, -89.8579330444336, 75.20645141601562, 51.02660369873047, 0.054723136, 0.17789714, -0.26683807
386, 3557982555, -89.99176788330078, 75.2023696899414, 50.914817810058594, 0.08730438, 0.20788828, -0.22561741
387, 3557999222, -90.14057922363281, 75.19474029541016, 50.78675842285156, 0.097991824, 0.23053819, -0.13826466
388, 3558015889, -90.21658325195312, 75.1810302734375, 50.70404815673828, 0.087063216, 0.19962747, -0.063920975
389, 3558032556, -90.20914459228516, 75.15874481201172, 50.675357818603516, 0.097930975, 0.16001248, -0.10233688
390, 3558049223, -90.18074798583984, 75.13306427001953, 50.6714973449707, 0.057403713, 0.113736354, -0.18608665
391, 3558065890, -90.16204071044922, 75.09815979003906, 50.67882537841797, -0.012750856, 0.10982533, -0.22441673
392, 3558082557, -90.1267318725586, 75.05721282958984, 50.70383071899414, -0.02082677, 0.10975492, -0.22355366
393, 3558099224, -90.08981323242188, 75.0168685913086, 50.713314056396484, 0.016221173, 0.17002116, -0.2631817
394, 3558115891, -90.03866577148438, 74.97470092773438, 50.706329345703125, 0.07492104, 0.1955231, -0.32521534
395, 3558132558, -89.9560775756836, 74.93219757080078, 50.70772933959961, 0.027146421, 0.19216736, -0.36892128
396, 3558149225, -89.8780746459961, 74.87992858886719, 50.69416046142578, 0.014690389, 0.13475864, -0.374794
397, 3558165892, -89.81037139892578, 74.81835174560547, 50.63612747192383, 0.018876955, 0.19741425, -0.27392673
398, 3558182559, -89.73758697509766, 74.75343322753906, 50.534271240234375, 0.015834551, 0.17737675, -0.23495293
399, 3558199226, -89.70075225830078, 74.68634033203125, 50.383609771728516, 0.007393641, 0.14929213, -0.19637299
400, 3558215893, -89.66995239257812, 74.60154724121094, 50.20249938964844, 0.07792131, 0.22071703, -0.087114334
401, 3558232560, -89.55731964111328, 74.5009994506836, 50.017112731933594, 0.202241, 0.36247835, -0.079935074
402, 3558249227, -89.33370208740234, 74.38976287841797, 49.83819580078125, 0.2989854, 0.42585567, -0.138587
403, 3558265894, -89.00633239746094, 74.26146697998047, 49.70404052734375, 0.22914028, 0.38391814, -0.14883709
404, 3558282561, -88.6174087524414, 74.11033630371094, 49.57646942138672, 0.15908612, 0.20544551, -0.19667053
405, 3558299228, -88.0921630859375, 73.94658660888672, 49.52254104614258, 0.17198014, 0.28512654, -0.12545776
406, 3558315895, -87.46783447265625, 73.76083374023438, 49.554935455322266, 0.2466161, 0.34305167, 0.035805702
407, 3558332562, -86.76585388183594, 73.55728149414062, 49.70823287963867, 0.12982427, 0.18731973, 0.07904434
408, 3558349229, -85.88195037841797, 73.31399536132812, 50.052268981933594, 0.10498811, 0.26093954, 0.15238285
409, 3558365896, -84.68449401855469, 72.99787902832031, 50.70318603515625, 0.17631558, 0.5647019, 0.27544212
410, 3558382563, -83.37881469726562, 72.60516357421875, 51.532196044921875, 0.26352692, 0.7237908, 0.195817
411, 3558399230, -82.11563873291016, 72.15380859375, 52.398902893066406, 0.35846388, 0.7205121, 0.16297531
412, 3558415897, -80.82737731933594, 71.64997100830078, 53.31325912475586, 0.39317554, 0.7407901, 0.20994473
413, 3558432564, -79.4859619140625, 71.1021499633789, 54.2589225769043, 0.29708868, 0.71899134, 0.17642689
414, 3558449231, -78.08293151855469, 70.5382308959961, 55.21992874145508, 0.1272847, 0.49403897, 0.094034195
415, 3558465898, -76.69204711914062, 69.97936248779297, 56.183685302734375, -0.12507422, 0.2551548, -0.019691467
416, 3558482565, -75.42778778076172, 69.39999389648438, 57.107261657714844, -0.21815439, 0.2007446, -0.090088844
417, 3558499232, -74.38702392578125, 68.78706359863281, 57.929466247558594, -0.051860146, 0.19087715, -0.060041428
418, 3558515899, -73.51549530029297, 68.16595458984375, 58.65669631958008, 0.07183785, 0.23513563, -0.08150005
419, 3558532566, -72.71553039550781, 67.56547546386719, 59.32323455810547, 0.14373532, 0.19573656, -0.20037842
420, 3558549233, -71.94502258300781, 67.00076293945312, 59.93659591674805, 0.11010975, 0.08807059, -0.2903967
421, 3558565900, -71.23194122314453, 66.48992156982422, 60.51005935668945, -0.05344508, -0.0887713, -0.4819498
422, 3558582567, -70.67285919189453, 66.05387115478516, 60.99764633178711, -0.34285322, -0.30742174, -0.6532078
423, 3558599234, -70.31229400634766, 65.69669342041016, 61.39266586303711, -0.55322665, -0.4796834, -0.74948025
424, 3558615901, -70.14830780029297, 65.42369079589844, 61.67616653442383, -0.5240654, -0.53522253, -0.8521862
425, 3558632568, -70.17158508300781, 65.24483489990234, 61.82954406738281, -0.38103092, -0.50887376, -0.91538906
426, 3558649235, -70.35030364990234, 65.15494537353516, 61.84741973876953, -0.28811994, -0.49884337, -0.8661289
427, 3558665902, -70.58963012695312, 65.15921020507812, 61.75601577758789, -0.26604447, -0.5364997, -0.7727709
428, 3558682569, -70.80801391601562, 65.24944305419922, 61.61750030517578, -0.3346961, -0.5748617, -0.7364521
429, 3558699236, -71.05210876464844, 65.43400573730469, 61.43015670776367, -0.43636927, -0.7220029, -0.74143505
430, 3558715903, -71.40805053710938, 65.69113159179688, 61.14445495605469, -0.46792108, -0.863547, -0.73634434
431, 3558732570, -71.84659576416016, 65.99028778076172, 60.77892303466797, -0.38187927, -0.7743099, -0.7253399
432, 3558749237, -72.4275131225586, 66.32585144042969, 60.274261474609375, -0.28937837, -0.7065455, -0.6660652
433, 3558765904, -73.13075256347656, 66.70829010009766, 59.63294219970703, -0.19372639, -0.6380694, -0.53140926
434, 3558782571, -73.89412689208984, 67.13789367675781, 58.89570999145508, -0.116130345, -0.5397174, -0.46104717
435, 3558799238, -74.65274810791016, 67.61160278320312, 58.12424850463867, -0.03649866, -0.39949408, -0.39049244
436, 3558815905, -75.42017364501953, 68.13221740722656, 57.31694030761719, 8.8371435E-4, -0.28008273, -0.33105087
437, 3558832572, -76.29412841796875, 68.7037353515625, 56.403846740722656, -0.044510603, -0.2407745, -0.28874207
438, 3558849239, -77.29835510253906, 69.30120849609375, 55.35886001586914, 0.055828508, -0.12631433, -0.27733898
439, 3558865906, -78.47588348388672, 69.8831558227539, 54.15365219116211, 0.20559208, 0.12841557, -0.21008396
440, 3558882573, -79.8117904663086, 70.44207763671875, 52.8146858215332, 0.22360884, 0.31217116, -0.15401936
441, 3558899240, -81.33088684082031, 70.99864196777344, 51.30453109741211, 0.25720128, 0.34934962, -0.1242342
442, 3558915907, -82.95704650878906, 71.5203628540039, 49.68108367919922, 0.34555086, 0.50820744, -0.05533886
443, 3558932574, -84.57243347167969, 71.98698425292969, 48.00679016113281, 0.47288665, 0.6951673, 0.10723114
444, 3558949241, -86.17449951171875, 72.4158935546875, 46.27634048461914, 0.58186287, 0.7915537, 0.24655342
445, 3558965908, -87.655029296875, 72.76693725585938, 44.59577941894531, 0.75776887, 0.94207025, 0.25396824
446, 3558982575, -88.82374572753906, 72.96446990966797, 43.18680953979492, 0.9806942, 1.2175888, 0.36696434
447, 3558999242, -89.6333999633789, 72.99635314941406, 42.04889678955078, 1.2931225, 1.6140503, 0.5237446
448, 3559015909, -90.17827606201172, 72.89482879638672, 41.05512619018555, 1.2824371, 1.8329452, 0.66397
449, 3559032576, -90.24675750732422, 72.67455291748047, 40.29085922241211, 1.3959017, 1.8071693, 0.7360325
450, 3559049243, -89.64449310302734, 72.33926391601562, 39.91566848754883, 1.3804018, 1.8988614, 0.7952938
451, 3559065910, -88.4620132446289, 71.8521499633789, 39.99983596801758, 1.0866181, 1.9353602, 0.8842764
452, 3559082577, -86.89288330078125, 71.19583892822266, 40.436222076416016, 0.9792675, 1.9091507, 1.0257549
453, 3559099244, -84.9504623413086, 70.34815216064453, 41.193946838378906, 1.0286714, 1.7596086, 1.2715521
454, 3559115911, -82.56852722167969, 69.33776092529297, 42.34841537475586, 0.96394867, 1.5647945, 1.3501806
455, 3559132578, -79.86903381347656, 68.17411804199219, 43.8857536315918, 0.53311, 1.5288838, 1.2967854
456, 3559149245, -77.0799560546875, 66.80636596679688, 45.649932861328125, 0.08694397, 1.3123156, 1.4245129
457, 3559165912, -74.25, 65.22408294677734, 47.57865905761719, -0.11031906, 1.3004323, 1.5120373
458, 3559182579, -71.54695892333984, 63.43406295776367, 49.55965042114258, -0.359715, 1.3767093, 1.5150433
459, 3559199246, -69.0820541381836, 61.42485427856445, 51.49888229370117, -0.5900117, 1.3173666, 1.45924
460, 3559215913, -66.86936950683594, 59.21662139892578, 53.29293441772461, -0.635813, 1.4790322, 1.530199
461, 3559232580, -64.83196258544922, 56.843238830566406, 54.92586135864258, -0.792584, 1.5160464, 1.645216
462, 3559249247, -62.85205841064453, 54.35923767089844, 56.51426315307617, -1.0070035, 1.2993635, 1.738493
463, 3559265914, -60.91627883911133, 51.742774963378906, 58.09809494018555, -1.1308666, 0.9679613, 1.6530533
464, 3559282581, -59.15435028076172, 48.9731330871582, 59.582759857177734, -1.271779, 0.88308626, 1.4763355
465, 3559299248, -57.60211944580078, 46.04970932006836, 60.949188232421875, -1.2898192, 0.9300812, 1.4214783
466, 3559315915, -56.20341491699219, 42.97453689575195, 62.23038864135742, -1.3186288, 0.94421726, 1.479825
467, 3559332582, -54.84185028076172, 39.800106048583984, 63.46726608276367, -1.2035699, 0.9548203, 1.4108496
468, 3559349249, -53.43251419067383, 36.58701705932617, 64.64556884765625, -1.236197, 0.76983005, 1.1358471
469, 3559365916, -51.958072662353516, 33.313072204589844, 65.77003479003906, -1.4065797, 0.5954012, 1.0323687
470, 3559382583, -50.496395111083984, 29.980426788330078, 66.83440399169922, -1.5529819, 0.38799658, 1.0279341
471, 3559399250, -49.024330139160156, 26.62151336669922, 67.8479232788086, -1.5998131, 0.004153318, 0.8720331
472, 3559415917, -47.55763626098633, 23.308815002441406, 68.82017517089844, -1.569408, -0.0579692, 0.62178516
473, 3559432584, -46.06547546386719, 20.08230209350586, 69.7801742553711, -1.5693133, -0.12200544, 0.4751606
474, 3559449251, -44.58943557739258, 16.936227798461914, 70.7411880493164, -1.6796086, -0.40573078, 0.36964417
475, 3559465918, -43.15224075317383, 13.87791919708252, 71.71359252929688, -1.8818074, -0.70400566, 0.07145691
476, 3559482585, -41.75056457519531, 10.909099578857422, 72.7337875366211, -1.8887298, -0.87221885, -0.2104845
477, 3559499252, -40.373870849609375, 8.046980857849121, 73.78407287597656, -1.6650305, -0.9313772, -0.39447975
478, 3559515919, -39.10710144042969, 5.304381847381592, 74.84285736083984, -1.6061864, -1.088427, -0.5690365
479, 3559532586, -37.936546325683594, 2.6862218379974365, 75.93439483642578, -1.5309705, -1.345503, -0.9255333
480, 3559549253, -36.86664581298828, 0.20645658671855927, 77.05755615234375, -1.057424, -1.5510483, -1.1026287
481, 3559565920, -35.962406158447266, -2.123318910598755, 78.20133209228516, -0.8648522, -1.7234935, -0.9373522
482, 3559582587, -35.180999755859375, -4.284066677093506, 79.46329498291016, -0.9532023, -1.7404108, -0.7484102
483, 3559599254, -34.39989471435547, -6.221013069152832, 80.89797973632812, -0.8342574, -2.1528983, -0.69494724
484, 3559615921, -33.54004669189453, -8.013465881347656, 82.49565887451172, -0.6144768, -2.6576362, -1.3414097
485, 3559632588, -32.7835578918457, -9.750411987304688, 84.23411560058594, -0.7240017, -2.46974, -1.7606058
486, 3559649255, -32.34228515625, -11.415201187133789, 86.1252212524414, -1.3408148, -2.0157256, -1.8151422
487, 3559665922, -32.217796325683594, -12.953470230102539, 88.19999694824219, -1.8638734, -2.0432982, -1.6145039
488, 3559682589, -32.221466064453125, -14.317351341247559, 90.48426818847656, -1.5232909, -2.4175992, -1.5375919
489, 3559699256, -32.230770111083984, -15.547822952270508, 92.91883850097656, -0.59147656, -2.480571, -1.8741059
490, 3559715923, -32.30073165893555, -16.727901458740234, 95.41370391845703, -0.06750055, -1.8359944, -2.0664182
491, 3559732590, -32.48891830444336, -17.814725875854492, 97.8802719116211, -0.08799403, -1.3040123, -1.7881908
492, 3559749257, -32.896568298339844, -18.75202178955078, 100.30623626708984, -0.5343694, -1.6269779, -1.3088007
493, 3559765924, -33.45121383666992, -19.502485275268555, 102.84445190429688, -0.4575555, -2.4301875, -0.76809025
494, 3559782591, -33.9597282409668, -20.049461364746094, 105.65807342529297, 0.45780718, -3.3226495, -0.70335674
495, 3559799258, -34.17756652832031, -20.44135284423828, 108.73477172851562, 2.001189, -2.9627821, -1.4431734
496, 3559815925, -34.203453063964844, -20.815876007080078, 111.8405532836914, 2.4570045, -1.6676166, -1.4292736
497, 3559832592, -34.27532958984375, -21.18072509765625, 114.84314727783203, 0.88953865, -0.7394157, -1.1768389
498, 3559849259, -34.510337829589844, -21.37136459350586, 117.88185119628906, -0.97414345, -1.0704273, -0.97003174
499, 3559865926, -35.012943267822266, -21.27460479736328, 121.21397399902344, -1.3370726, -2.119516, -0.6700783
500, 3559882593, -35.72590637207031, -20.88033676147461, 125.04688262939453, 0.08263974, -2.5604048, -0.29519653
501, 3559899260, -36.359718322753906, -20.349660873413086, 129.21058654785156, 1.7263676, -1.8464297, -0.67340183
502, 3559915927, -37.26197814941406, -19.662479400634766, 133.6239776611328, 0.569371, -1.1934156, -1.7545996
503, 3559932594, -36.907718658447266, -16.74530601501465, 136.44244384765625, 12.58403, 18.263763, -3.1871347
504, 3559949261, -35.693748474121094, -17.58025550842285, 134.42901611328125, 27.223145, -0.11064825, 9.20492
505, 3559965928, -35.679866790771484, -18.337682723999023, 133.38026428222656, -1.236722, 2.731942, -11.861407
506, 3559982595, -34.578941345214844, -16.507701873779297, 135.8520050048828, -4.332101, -6.0977106, 2.1237507
507, 3559999262, -34.303470611572266, -16.247032165527344, 138.05413818359375, 2.0222893, 2.5751226, 6.754095
508, 3560015929, -34.93869400024414, -16.06586265563965, 137.7939910888672, 0.49104914, 6.0614147, -0.08897591
509, 3560032596, -35.87826919555664, -15.369121551513672, 137.6320343017578, -3.4093785, -2.7057903, -1.9541001
510, 3560049263, -37.49044418334961, -14.8388032913208, 137.72483825683594, -0.9723475, -3.6342509, -2.775413
511, 3560065930, -39.26471710205078, -14.32913589477539, 137.7401580810547, 1.5668674, -1.2534878, -0.016412735
512, 3560082597, -40.39427947998047, -13.894882202148438, 137.66600036621094, 1.7361851, -0.86670345, 2.7691784
513, 3560099264, -40.472816467285156, -13.683823585510254, 137.4908447265625, 0.15764302, -0.44826937, 2.4497366
514, 3560115931, -39.944969177246094, -13.581981658935547, 137.2478790283203, -0.47212273, 0.0075898645, 1.3355093
515, 3560132598, -39.33444595336914, -13.525431632995605, 136.9263916015625, -0.41297674, 0.26109663, -0.040501595
516, 3560149265, -38.78950500488281, -13.423847198486328, 136.4535675048828, 0.51958305, 0.015926374, -1.107831
517, 3560165932, -38.538787841796875, -13.346930503845215, 135.81529235839844, 1.6132305, -0.7544408, -0.7716236
518, 3560182599, -38.59349822998047, -13.250763893127441, 135.05355834960938, 1.9483517, -0.7195546, -0.041358948
519, 3560199266, -38.59671401977539, -12.964226722717285, 134.11705017089844, 2.199123, 0.44787294, 0.046643257
520, 3560215933, -38.35546112060547, -12.44636058807373, 132.95260620117188, 2.4538915, 0.94588596, -0.21567726
521, 3560232600, -37.91767120361328, -11.765398025512695, 131.63131713867188, 2.4948454, 0.4487464, -0.9166403
522, 3560249267, -37.449337005615234, -10.950614929199219, 130.2420196533203, 2.2047276, -0.25204828, -1.465004
523, 3560265934, -37.09272384643555, -9.945101737976074, 128.77146911621094, 1.7718085, -0.7101528, -1.3615026
524, 3560282601, -36.87373352050781, -8.67298698425293, 127.16972351074219, 1.5751641, -0.7110109, -0.82605934
525, 3560299268, -36.68132019042969, -7.180582046508789, 125.44034576416016, 1.6432588, -0.61488867, -0.8334656
526, 3560315935, -36.4994010925293, -5.542311191558838, 123.61080169677734, 1.3953888, -0.4638482, -1.2654963
527, 3560332602, -36.4958381652832, -3.7487118244171143, 121.7374267578125, 0.73599833, -0.5795876, -1.4904013
528, 3560349269, -36.780303955078125, -1.8100825548171997, 119.89070892333984, 0.14976776, -1.0383453, -0.8280382
529, 3560365936, -37.371253967285156, 0.2762310206890106, 118.10853576660156, -0.13201536, -1.4190466, 0.0358963
530, 3560382603, -37.96293640136719, 2.448620319366455, 116.43538665771484, -0.031589534, -1.2958208, 0.45286655
531, 3560399270, -38.40936279296875, 4.627677917480469, 114.85350036621094, -0.1633956, -0.67669266, 0.57372093
532, 3560415937, -38.92607879638672, 6.740957736968994, 113.2698745727539, -0.44773114, -0.79046595, 0.5849352
533, 3560432604, -39.60413360595703, 8.703363418579102, 111.76319122314453, -0.98276544, -1.6592728, 1.0217705
534, 3560449271, -40.35935592651367, 10.486929893493652, 110.39335632324219, -1.4176642, -1.9983556, 1.6161003
535, 3560465938, -40.905609130859375, 12.134400367736816, 109.16370391845703, -1.4851145, -1.7677312, 1.6255646
536, 3560482605, -41.20013427734375, 13.658907890319824, 108.0157241821289, -1.3639828, -1.1290307, 1.4628515
537, 3560499272, -41.394187927246094, 15.066802978515625, 106.87248992919922, -1.4038305, -0.5876932, 0.6813612
538, 3560515939, -41.61491394042969, 16.426027297973633, 105.72272491455078, -1.3582972, -0.24519059, -0.07487965
539, 3560532606, -42.125423431396484, 17.76485824584961, 104.54391479492188, -1.3178675, -0.549683, 0.23524666
540, 3560549273, -42.833457946777344, 19.0062313079834, 103.44694519042969, -0.95770204, -1.1371017, 0.9767513
541, 3560565940, -43.25669479370117, 20.165508270263672, 102.56451416015625, -0.6146858, -0.75063294, 1.8114204
542, 3560582607, -43.24147033691406, 21.3182315826416, 101.80955505371094, -0.21368377, 0.0034459159, 1.1768513
543, 3560599274, -42.92483901977539, 22.480236053466797, 101.0929183959961, -0.35939983, 0.3081802, 0.23783207
544, 3560615941, -42.652870178222656, 23.65749740600586, 100.34712982177734, -0.7388741, 0.22175682, -0.469697
545, 3560632608, -42.691192626953125, 24.90300750732422, 99.4916763305664, -1.0384175, 0.04954578, -1.0929155
546, 3560649275, -43.18721008300781, 26.261533737182617, 98.5091323852539, -0.97236717, 0.16681086, -1.40693
547, 3560665942, -44.11686325073242, 27.773109436035156, 97.42680358886719, -0.43903968, 0.3949181, -1.356822
548, 3560682609, -45.2215461730957, 29.452260971069336, 96.33320617675781, 0.3698522, 0.42642462, -1.0515928
549, 3560699276, -46.13441848754883, 31.316165924072266, 95.34087371826172, 0.793229, 0.4651451, -0.6785908
550, 3560715943, -46.70988082885742, 33.438785552978516, 94.43266296386719, 0.6192488, 0.5112126, -0.7947588
551, 3560732610, -47.07831573486328, 35.80885314941406, 93.57614135742188, 0.19116773, -0.08286944, -1.0305605
552, 3560749277, -47.430686950683594, 38.21826171875, 92.75064849853516, -0.22331052, -1.425083, -0.8302851
553, 3560765944, -47.92584991455078, 40.49455261230469, 91.99454498291016, -0.7623073, -1.9598114, -0.31420898
554, 3560782611, -48.83971405029297, 42.73272705078125, 91.176513671875, -0.98171973, -1.4239297, -0.49879265
555, 3560799278, -50.28438186645508, 45.0274772644043, 90.13723754882812, -1.0108608, -0.73477024, -0.609251
556, 3560815945, -52.05633544921875, 47.38398742675781, 88.91581726074219, -0.7523603, -0.10174198, -0.2338419
557, 3560832612, -53.914119720458984, 49.868064880371094, 87.5469970703125, -0.8543288, 0.36382747, 0.466609
558, 3560849279, -55.52495193481445, 52.38590621948242, 86.13964080810547, -0.765985, -0.038876057, 1.258831
559, 3560865946, -56.64923858642578, 54.749656677246094, 84.89979553222656, -0.5762156, -0.15066405, 1.3630857
560, 3560882613, -57.727272033691406, 56.990882873535156, 83.61681365966797, -0.47520787, 0.28861335, 0.8983021
561, 3560899280, -59.218162536621094, 59.153175354003906, 81.98152160644531, -0.567337, 0.43636858, 0.4931612
562, 3560915947, -61.280731201171875, 61.24964141845703, 79.88227844238281, -0.6016808, 0.44312987, 0.33868504
563, 3560932614, -63.8639030456543, 63.27019500732422, 77.3537368774414, -0.2935748, 0.6421426, 0.58295536
564, 3560949281, -66.73490142822266, 65.18767547607422, 74.50746154785156, -0.03189446, 0.7993621, 1.001112
565, 3560965948, -69.46662139892578, 66.97215270996094, 71.5244140625, 0.05868238, 0.97498965, 1.2042913
566, 3560982615, -72.18719482421875, 68.64533233642578, 68.24159240722656, 0.03994115, 0.9101427, 1.2225075
567, 3560999282, -75.07434844970703, 70.1276626586914, 64.62030029296875, -0.11130012, 0.5430205, 1.2486496
568, 3561015949, -78.278076171875, 71.34906005859375, 60.808048248291016, -0.22364287, 0.31104422, 1.2244358
569, 3561032616, -81.7729721069336, 72.2881851196289, 56.9964599609375, -0.15918157, 0.3296501, 1.0570555
570, 3561049283, -85.33737182617188, 72.96695709228516, 53.41404342651367, -0.06590989, 0.46979383, 1.0625572
571, 3561065950, -88.6456527709961, 73.45532989501953, 50.29045104980469, 0.057880692, 0.6924047, 1.159358
572, 3561082617, -91.42011260986328, 73.81897735595703, 47.76647186279297, 0.24416785, 0.90206724, 1.202158
573, 3561099284, -93.52685546875, 74.07807159423828, 45.834171295166016, 0.4053557, 1.0436499, 1.1065512
574, 3561115951, -94.82766723632812, 74.23468780517578, 44.527584075927734, 0.38709545, 1.2017102, 1.127367
575, 3561132618, -95.29964447021484, 74.32024383544922, 43.82020950317383, 0.22763935, 1.2201844, 0.7225704
576, 3561149285, -95.33104705810547, 74.39755249023438, 43.45111083984375, -0.08980996, 0.84158283, 0.045225143
577, 3561165952, -95.34326934814453, 74.47267150878906, 43.18752670288086, -0.38390383, 0.50116634, -0.3561144
578, 3561182619, -95.49566650390625, 74.53136444091797, 42.971778869628906, -0.61239773, 0.35574478, -0.3228569
579, 3561199286, -95.61538696289062, 74.5392837524414, 42.910945892333984, -0.5827561, 0.47126722, -0.13712215
580, 3561215953, -95.5801010131836, 74.49143981933594, 42.99263381958008, -0.18080886, 0.76990044, -0.05976391
581, 3561232620, -95.27482604980469, 74.41520690917969, 43.20847702026367, 0.051247217, 0.90463024, -0.20683193
582, 3561249287, -94.73853302001953, 74.35758972167969, 43.553646087646484, -0.043076813, 0.71734786, -0.42072678
583, 3561265954, -94.17620086669922, 74.32479858398438, 43.9490966796875, -0.24624144, 0.37379816, -0.5947714
584, 3561282621, -93.69747924804688, 74.28860473632812, 44.35580062866211, -0.32590038, 0.2166732, -0.46280384
585, 3561299288, -93.3748779296875, 74.23064422607422, 44.71136474609375, -0.24966185, 0.19762188, -0.24553108
586, 3561315955, -93.11776733398438, 74.16595458984375, 45.074283599853516, -0.18392703, 0.19151774, -0.16921806
587, 3561332622, -92.83755493164062, 74.10564422607422, 45.49308776855469, -0.16195184, 0.13543634, -0.17810726
588, 3561349289, -92.52470397949219, 74.05296325683594, 45.95024108886719, -0.16159455, 0.11407073, -0.15841961
589, 3561365956, -92.26568603515625, 74.01045989990234, 46.32612228393555, -0.10489748, 0.088734195, -0.25661182
590, 3561382623, -92.09701538085938, 73.98738861083984, 46.5632209777832, -0.07516249, -0.055771623, -0.30781937
591, 3561399290, -91.9365234375, 73.97240447998047, 46.78898620605469, -0.10975441, -0.20687197, -0.32250118
592, 3561415957, -91.73533630371094, 73.95601654052734, 47.04582977294922, -0.06850638, -0.11586711, -0.27945423
593, 3561432624, -91.55963897705078, 73.94824981689453, 47.27225875854492, -0.054338682, -0.05281209, -0.33909798
594, 3561449291, -91.48999786376953, 73.95652770996094, 47.39331817626953, -0.060565807, -0.07978643, -0.38748074
595, 3561465958, -91.50076293945312, 73.96730041503906, 47.44570541381836, -0.0625924, -0.17278267, -0.22923279
596, 3561482625, -91.48222351074219, 73.98469543457031, 47.49563217163086, -0.078967184, -0.19174774, -0.15465736
597, 3561499292, -91.47918701171875, 74.026123046875, 47.50993728637695, -0.041194666, -0.14031853, -0.30131626
598, 3561515959, -91.57536315917969, 74.0753402709961, 47.42484664916992, 0.042934157, -0.11321177, -0.31253433
599, 3561532626, -91.64627838134766, 74.1225357055664, 47.35478973388672, 0.043068934, -0.12118269, -0.23316479
600, 3561549293, -91.69700622558594, 74.17510986328125, 47.297340393066406, 0.07605252, -0.10611367, -0.26075172
601, 3561565960, -91.73762512207031, 74.21881866455078, 47.22475814819336, 0.06588944, -0.07101901, -0.22241783
602, 3561582627, -91.74616241455078, 74.25511932373047, 47.1583251953125, 0.016965639, -0.09629206, -0.25589848
603, 3561599294, -91.80806732177734, 74.31073760986328, 47.06049346923828, -0.035289064, -0.15008783, -0.33248997
604, 3561615961, -91.9691162109375, 74.38190460205078, 46.896915435791016, -0.0021204115, -0.091233075, -0.3723545
605, 3561632628, -92.16651916503906, 74.45462036132812, 46.71909713745117, 0.07796373, -0.05183379, -0.32162094
606, 3561649295, -92.34825134277344, 74.52750396728516, 46.53961944580078, 0.18114032, 0.0016803704, -0.27494907
607, 3561665962, -92.4914779663086, 74.60872650146484, 46.39321517944336, 0.13724902, 0.01212066, -0.29742718
608, 3561682629, -92.64828491210938, 74.6939468383789, 46.25704574584961, -0.0629346, -0.028531205, -0.42338562
609, 3561699296, -92.8743896484375, 74.77550506591797, 46.118865966796875, -0.13310967, -0.06182346, -0.44109058
610, 3561715963, -93.19903564453125, 74.84637451171875, 45.926658630371094, -0.058173995, -0.028821325, -0.24720001
611, 3561732630, -93.52041625976562, 74.91199493408203, 45.73401641845703, 0.042216178, 0.014650604, -0.15159607
612, 3561749297, -93.78839874267578, 74.97867584228516, 45.550846099853516, 0.07881307, 0.11605888, -0.1748581
613, 3561765964, -94.00717163085938, 75.050048828125, 45.37024688720703, 0.02330402, 0.15843649, -0.2625141
614, 3561782631, -94.25371551513672, 75.12698364257812, 45.129859924316406, 0.020814924, 0.08112381, -0.21965313
615, 3561799298, -94.49988555908203, 75.19759368896484, 44.879844665527344, 0.024776824, 0.043155972, -0.17082691
616, 3561815965, -94.71661376953125, 75.2536849975586, 44.666751861572266, 0.02741336, 0.08905896, -0.23411465
617, 3561832632, -94.92860412597656, 75.30400848388672, 44.46232223510742, 0.024953155, 0.1487718, -0.16701508
618, 3561849299, -95.06395721435547, 75.35347747802734, 44.341617584228516, -0.007824462, 0.11662504, -0.12104225
619, 3561865966, -95.1310043334961, 75.4034194946289, 44.31583786010742, -0.03186099, 0.117100894, -0.16577339
620, 3561882633, -95.2280502319336, 75.44769287109375, 44.278873443603516, -0.017603545, 0.17440984, -0.12080097
621, 3561899300, -95.32099151611328, 75.47840118408203, 44.234249114990234, 0.0232045, 0.22249173, 0.0010232925
622, 3561915967, -95.34576416015625, 75.5009765625, 44.221275329589844, 0.036506593, 0.23306657, -0.02272129
623, 3561932634, -95.28755950927734, 75.52216339111328, 44.255165100097656, 0.010231585, 0.17521091, -0.19334698
624, 3561949301, -95.2237319946289, 75.54740142822266, 44.30556106567383, 0.0018891874, 0.1326936, -0.30230713
625, 3561965968, -95.19888305664062, 75.5670166015625, 44.339019775390625, 0.07486583, 0.07776888, -0.2176876
626, 3561982635, -95.13156127929688, 75.56950378417969, 44.41854476928711, 0.1491228, 0.1295819, -0.15652561
627, 3561999302, -95.02054595947266, 75.56748962402344, 44.535640716552734, 0.16865997, 0.17112577, -0.18249607
628, 3562015969, -94.86685180664062, 75.57049560546875, 44.67493438720703, 0.10797726, 0.1182578, -0.1889267
629, 3562032636, -94.66246032714844, 75.57312774658203, 44.86672592163086, 0.009060377, 0.068653345, -0.25458908
630, 3562049303, -94.49272155761719, 75.57564544677734, 45.055877685546875, -0.065543495, 0.030827131, -0.26055145
631, 3562065970, -94.43952941894531, 75.57444763183594, 45.165679931640625, -0.032546952, 0.012292095, -0.17824554
632, 3562082637, -94.45259094238281, 75.56547546386719, 45.22294616699219, 0.05147397, 0.03843864, -0.096016884
633, 3562099304, -94.41316986083984, 75.54972076416016, 45.30872344970703, 0.112383544, 0.09423932, -0.14192867
634, 3562115971, -94.31990051269531, 75.54305267333984, 45.42355728149414, 0.1060498, 0.084319144, -0.22168732
635, 3562132638, -94.23980712890625, 75.53964233398438, 45.51509475708008, 0.09409197, 0.056862812, -0.22374439
636, 3562149305, -94.19281768798828, 75.53502655029297, 45.57680892944336, 0.025812354, 0.036790036, -0.21659279
637, 3562165972, -94.17948150634766, 75.52901458740234, 45.62641525268555, 0.041911416, -0.014723692, -0.2206564
638, 3562182639, -94.15522766113281, 75.51631927490234, 45.685909271240234, 0.0490217, 0.03692434, -0.18796349
639, 3562199306, -94.13774108886719, 75.50077056884766, 45.73153305053711, 0.071366064, 0.04002268, -0.25172615
640, 3562215973, -94.14299774169922, 75.48847961425781, 45.74955749511719, 0.09049939, 0.012931119, -0.28585052
641, 3562232640, -94.10821533203125, 75.47470092773438, 45.80246353149414, 0.072207145, 0.028259413, -0.2965107
642, 3562249307, -94.07331848144531, 75.45875549316406, 45.86430358886719, 0.013228167, 0.03314764, -0.26856422
643, 3562265974, -94.0454330444336, 75.43708801269531, 45.91777801513672, -0.016634505, -0.007114641, -0.1707573
644, 3562282641, -94.00298309326172, 75.40958404541016, 45.97239303588867, 0.0025013336, 0.0069803097, -0.117383
645, 3562299308, -93.9582290649414, 75.38676452636719, 46.002197265625, -4.727299E-5, 0.07392691, -0.20751286
646, 3562315975, -93.93543243408203, 75.37544250488281, 46.002437591552734, -0.027702363, 0.029604962, -0.29555798
647, 3562332642, -94.03580474853516, 75.36903381347656, 45.88407897949219, -0.050922975, 0.027820105, -0.24435997
648, 3562349309, -94.16121673583984, 75.36263275146484, 45.73030090332031, 0.047289085, 0.0072500897, -0.18606758
649, 3562365976, -94.23033905029297, 75.36119842529297, 45.62098693847656, 0.0571108, 0.056290396, -0.2177906
650, 3562382643, -94.27377319335938, 75.36466217041016, 45.53715896606445, 0.010325349, -0.022712046, -0.18960857
651, 3562399310, -94.3101806640625, 75.36688995361328, 45.48094177246094, -0.047482535, -0.066398546, -0.19580364
652, 3562415977, -94.38772583007812, 75.36479187011719, 45.425682067871094, -0.088952065, -0.0010677214, -0.20475483
653, 3562432644, -94.50220489501953, 75.36537170410156, 45.349178314208984, -0.01679387, 0.046053503, -0.19847775
654, 3562449311, -94.60746765136719, 75.36425018310547, 45.26958465576172, 0.029601665, 0.10467559, -0.24936104
655, 3562465978, -94.68700408935547, 75.36199951171875, 45.18032455444336, 0.09764074, 0.09492394, -0.30528355
656, 3562482645, -94.76057434082031, 75.36000061035156, 45.06458282470703, 0.08198567, 0.12324393, -0.28233433
657, 3562499312, -94.81819152832031, 75.35919952392578, 44.953956604003906, 0.037062928, 0.060793888, -0.28159523
658, 3562515979, -94.84410858154297, 75.35230255126953, 44.87692642211914, 0.043084525, 0.011827635, -0.30449677
659, 3562532646, -94.8622817993164, 75.34113311767578, 44.82450485229492, -0.0038397291, 0.048660334, -0.2540903
660, 3562549313, -94.86347961425781, 75.32852172851562, 44.81215286254883, -0.03626889, 0.0348897, -0.2602415
661, 3562565980, -94.86685180664062, 75.31658935546875, 44.811012268066406, -0.013315561, 0.08929186, -0.2901373
662, 3562582647, -94.90636444091797, 75.30535125732422, 44.78118896484375, 0.0021193498, 0.061574243, -0.26429367
663, 3562599314, -94.96163177490234, 75.30025482177734, 44.73880386352539, -0.015759004, 0.09599971, -0.28078747
664, 3562615981, -95.01655578613281, 75.2960205078125, 44.700828552246094, -0.03831923, 0.12596832, -0.29971218
665, 3562632648, -95.07260131835938, 75.2919692993164, 44.651126861572266, -0.028650561, 0.083793215, -0.3212223
666, 3562649315, -95.14324188232422, 75.29073333740234, 44.60459899902344, -0.071877465, 0.070985034, -0.35494423
667, 3562665982, -95.25801086425781, 75.28929138183594, 44.541629791259766, -0.0648458, 0.027963929, -0.36022186
668, 3562682649, -95.41209411621094, 75.28143310546875, 44.44353103637695, -0.02987686, 0.04528883, -0.22564125
669, 3562699316, -95.49871063232422, 75.26982116699219, 44.38234329223633, 0.01933862, 0.04733803, -0.14995384
670, 3562715983, -95.4705581665039, 75.26099395751953, 44.393367767333984, 0.02149161, 0.08747761, -0.17446136
671, 3562732650, -95.38412475585938, 75.25660705566406, 44.443424224853516, -0.064006284, 0.07642556, -0.24144745
672, 3562749317, -95.31423950195312, 75.25662231445312, 44.49915313720703, -0.1187754, 0.019394219, -0.21395206
673, 3562765984, -95.25372314453125, 75.25145721435547, 44.573326110839844, -0.12081747, 0.0049914913, -0.19808197
674, 3562782651, -95.2138900756836, 75.241455078125, 44.63092803955078, -0.022069613, 0.055356335, -0.15450382
675, 3562799318, -95.13369750976562, 75.236328125, 44.70857620239258, 0.03398168, 0.07169044, -0.19211578
676, 3562815985, -95.00253295898438, 75.241455078125, 44.81015396118164, 0.016904788, 0.06679908, -0.26962566
677, 3562832652, -94.8447265625, 75.25241088867188, 44.92744827270508, -0.003767758, 0.066700734, -0.31804943
678, 3562849319, -94.72559356689453, 75.2632827758789, 45.03148651123047, -0.02900834, 0.04191555, -0.40679073
679, 3562865986, -94.68274688720703, 75.27163696289062, 45.08952713012695, -0.06606456, 0.0055929646, -0.3623171
680, 3562882653, -94.69794464111328, 75.27239990234375, 45.11676788330078, -0.020570848, -0.0077811563, -0.26425266
681, 3562899320, -94.72325134277344, 75.26641845703125, 45.132259368896484, 0.040596545, 0.002166958, -0.23787403
682, 3562915987, -94.70795440673828, 75.26522827148438, 45.17206954956055, 0.080058984, 0.022321122, -0.21760273
683, 3562932654, -94.63066864013672, 75.27253723144531, 45.25026321411133, 0.049537793, 0.03730163, -0.22416306
684, 3562949321, -94.52576446533203, 75.28272247314453, 45.34792709350586, 0.020072302, -0.0070185303, -0.23684311
685, 3562965988, -94.46087646484375, 75.29263305664062, 45.4116096496582, 0.0048257005, -0.017038168, -0.19583988
686, 3562982655, -94.44602966308594, 75.2986831665039, 45.433074951171875, -0.00543997, -0.01969328, -0.22659016
687, 3562999322, -94.46910858154297, 75.30046081542969, 45.41865539550781, 0.019451998, -0.017403388, -0.28132153
688, 3563015989, -94.49665832519531, 75.3019790649414, 45.40243148803711, 0.031851713, -0.019828951, -0.2826376
689, 3563032656, -94.5120849609375, 75.31050109863281, 45.40364074707031, 0.03480307, -0.029724099, -0.31975937
690, 3563049323, -94.56658935546875, 75.32275390625, 45.36750030517578, 0.05405102, -0.04797147, -0.22593594
691, 3563065990, -94.59634399414062, 75.33349609375, 45.336883544921875, 0.031175308, -0.01585735, -0.2180872
692, 3563082657, -94.5990982055664, 75.34200286865234, 45.335899353027344, 0.016803201, -0.03903542, -0.267416
693, 3563099324, -94.6331558227539, 75.35623168945312, 45.314788818359375, -0.063053675, -0.031136025, -0.2653265
694, 3563115991, -94.73790740966797, 75.37359619140625, 45.236412048339844, -0.107253365, -0.0072431606, -0.25635338
695, 3563132658, -94.88018798828125, 75.3908920288086, 45.12892150878906, -0.07618998, 0.007287193, -0.23075104
696, 3563149325, -95.0450439453125, 75.40984344482422, 45.000099182128906, 0.01693133, 0.011009131, -0.18159008
697, 3563165992, -95.2283935546875, 75.4375991821289, 44.829158782958984, 0.030280864, 0.063025735, -0.17975044
698, 3563182659, -95.37345886230469, 75.46766662597656, 44.675323486328125, -0.025189184, 0.03824016, -0.1559534
699, 3563199326, -95.47834014892578, 75.4991455078125, 44.55955505371094, -0.05673374, 0.032477837, -0.16720676
700, 3563215993, -95.5831069946289, 75.52660369873047, 44.45779800415039, -0.029759577, 0.05372849, -0.21650028
701, 3563232660, -95.7054443359375, 75.55355072021484, 44.3437614440918, -0.012003093, 0.052403282, -0.19475651
702, 3563249327, -95.79861450195312, 75.58011627197266, 44.25410461425781, 0.01328628, 0.103106305, -0.17482662
703, 3563265994, -95.83890533447266, 75.60413360595703, 44.201839447021484, 0.033925634, 0.12543212, -0.20074368
704, 3563282661, -95.84638977050781, 75.6278076171875, 44.17173767089844, 0.019980941, 0.120385416, -0.24002934
705, 3563299328, -95.84578704833984, 75.6487808227539, 44.15889358520508, -0.014390156, 0.08630193, -0.3189621
706, 3563315995, -95.88106536865234, 75.65983581542969, 44.132080078125, 0.004406502, 0.13611358, -0.355155
707, 3563332662, -95.95211791992188, 75.66460418701172, 44.068965911865234, 0.040120687, 0.15684508, -0.24481297
708, 3563349329, -95.9912109375, 75.6693344116211, 44.00910949707031, 0.06154105, 0.16570379, -0.17625046
709, 3563365996, -95.95514678955078, 75.67359924316406, 43.99628829956055, 0.049921896, 0.10752918, -0.1851883
710, 3563382663, -95.8936767578125, 75.67806243896484, 44.00527572631836, 0.0014497857, 0.056645513, -0.23365688
711, 3563399330, -95.85586547851562, 75.67743682861328, 44.016258239746094, -0.007777748, 0.044038534, -0.27467728
712, 3563415997, -95.85108184814453, 75.67313385009766, 44.0285530090332, -0.0027165764, 0.04703495, -0.24632835
713, 3563432664, -95.85333251953125, 75.66835021972656, 44.047882080078125, 0.006839832, 0.045625027, -0.19492054
714, 3563449331, -95.83850860595703, 75.65990447998047, 44.0858154296875, 0.02168439, 0.06487128, -0.16713905
715, 3563465998, -95.8154296875, 75.64777374267578, 44.11363220214844, 0.035741396, 0.055093486, -0.18630314
716, 3563482665, -95.78607177734375, 75.63639831542969, 44.12306213378906, 0.033022474, 0.054939933, -0.20836163
717, 3563499332, -95.7403335571289, 75.63412475585938, 44.14440155029297, 0.008979019, 0.013295668, -0.29743862
718, 3563515999, -95.70946502685547, 75.63333892822266, 44.152381896972656, -0.022710761, 0.050205257, -0.3219576
719, 3563532666, -95.688232421875, 75.62775421142578, 44.16269302368164, -0.00396227, 0.03336579, -0.23579693
720, 3563549333, -95.64945983886719, 75.62181091308594, 44.19061279296875, -0.001290207, 0.010282096, -0.1824255
721, 3563566000, -95.58557891845703, 75.61860656738281, 44.23664093017578, 0.0090616625, 0.013436034, -0.24116993
722, 3563582667, -95.54432678222656, 75.62210845947266, 44.2734375, -0.05643434, 0.008459072, -0.301013
723, 3563599334, -95.53596496582031, 75.6251220703125, 44.28124237060547, -0.038024414, 0.021828052, -0.27233315
724, 3563616001, -95.51224517822266, 75.62664031982422, 44.308345794677734, -0.022324419, 0.033431727, -0.24786091
725, 3563632668, -95.50421142578125, 75.62896728515625, 44.31459045410156, 0.019770224, 0.033730116, -0.22014904
726, 3563649335, -95.46273803710938, 75.6384506225586, 44.33458709716797, 0.023054468, 0.06879081, -0.18613434
727, 3563666002, -95.36270904541016, 75.65283966064453, 44.397090911865234, -0.01597693, 0.034885008, -0.25351906
728, 3563682669, -95.27535247802734, 75.66902923583984, 44.46541213989258, -0.030777287, 0.023596486, -0.3469267
729, 3563699336, -95.22066497802734, 75.68195343017578, 44.517208099365234, -0.016152276, 0.032142952, -0.33062172
730, 3563716003, -95.15888977050781, 75.68836212158203, 44.587215423583984, 0.0071772244, 0.012709171, -0.28268623
731, 3563732670, -95.06700134277344, 75.69502258300781, 44.684783935546875, 0.030865567, 0.010681043, -0.23695755
732, 3563749337, -94.9577407836914, 75.69922637939453, 44.77894592285156, 0.018349966, 0.070297286, -0.21539402
733, 3563766004, -94.83837890625, 75.70149230957031, 44.8694953918457, 0.011663297, 0.07129035, -0.2502184
734, 3563782671, -94.70921325683594, 75.70559692382812, 44.96692657470703, -0.01566809, 0.056968983, -0.26220417
735, 3563799338, -94.5767593383789, 75.7125015258789, 45.06998062133789, 0.012286675, 0.02435889, -0.23804665
736, 3563816005, -94.42681884765625, 75.7205581665039, 45.194766998291016, -0.018457811, -0.028233485, -0.18006802
737, 3563832672, -94.27096557617188, 75.73065948486328, 45.334808349609375, -0.01688171, 0.024128, -0.22845078
738, 3563849339, -94.15519714355469, 75.74433898925781, 45.447914123535156, -0.0040726294, 0.06694303, -0.3163767
739, 3563866006, -94.05926513671875, 75.7557144165039, 45.5410041809082, -7.5145054E-4, 0.03830118, -0.27213764
740, 3563882673, -93.95513916015625, 75.75701141357422, 45.62543487548828, 0.046556745, 0.0025724105, -0.2578678
741, 3563899340, -93.82442474365234, 75.75698852539062, 45.724918365478516, 0.039490134, -0.026313271, -0.23615456
742, 3563916007, -93.68285369873047, 75.7640609741211, 45.83467102050781, -0.017871983, -0.044435047, -0.187006
743, 3563932674, -93.5636978149414, 75.77306365966797, 45.92440414428711, -0.02961949, -0.022992555, -0.18139553
744, 3563949341, -93.4588623046875, 75.77935791015625, 46.00497817993164, -0.005298598, 0.04257609, -0.18074799
745, 3563966008, -93.36412048339844, 75.78875732421875, 46.08347702026367, 0.018132042, 0.040525805, -0.1943388
746, 3563982675, -93.28844451904297, 75.80509948730469, 46.14908218383789, -5.818042E-4, 0.033588186, -0.20851803
747, 3563999342, -93.21891784667969, 75.81990814208984, 46.19664764404297, 0.010639552, 0.023830729, -0.17969322
748, 3564016009, -93.1555404663086, 75.83103942871094, 46.2258415222168, 0.0037910033, 0.050241467, -0.18865585
749, 3564032676, -93.08007049560547, 75.84237670898438, 46.264408111572266, 0.018974518, 0.032831594, -0.22679424
750, 3564049343, -93.00938415527344, 75.85655212402344, 46.29901123046875, 0.057217415, 0.056646675, -0.24960136
751, 3564066010, -92.94624328613281, 75.87258911132812, 46.3404426574707, 0.021542681, 0.10319615, -0.27699184
752, 3564082677, -92.8818359375, 75.88707733154297, 46.3886604309082, 0.044902846, 0.10697292, -0.2582016
753, 3564099344, -92.83053588867188, 75.89620208740234, 46.435787200927734, 0.021022065, 0.14070944, -0.2570343
754, 3564116011, -92.79068756103516, 75.90119171142578, 46.474124908447266, -0.007571054, 0.12009396, -0.28140926
755, 3564132678, -92.74400329589844, 75.90448760986328, 46.52109909057617, -0.0066691795, 0.08985243, -0.2283926
756, 3564149345, -92.67276763916016, 75.9039306640625, 46.585174560546875, -0.015137024, 0.12350745, -0.21722126
757, 3564166012, -92.57706451416016, 75.89995574951172, 46.6572151184082, 0.013340203, 0.1565896, -0.21048546
758, 3564182679, -92.46839141845703, 75.89623260498047, 46.731040954589844, 0.012795782, 0.15822169, -0.24113941
759, 3564199346, -92.34871673583984, 75.89523315429688, 46.82441711425781, -0.02295478, 0.14146648, -0.25055313
760, 3564216013, -92.27978515625, 75.8914794921875, 46.882972717285156, -0.049652062, 0.118755564, -0.22310066
761, 3564232680, -92.23176574707031, 75.88372039794922, 46.913291931152344, 0.010026791, 0.07927066, -0.15494728
762, 3564249347, -92.13225555419922, 75.8727035522461, 46.97322463989258, 0.03787345, 0.075206034, -0.14561176
763, 3564266014, -91.96025848388672, 75.85982513427734, 47.09601593017578, 0.044728406, 0.02381687, -0.23200512
764, 3564282681, -91.76399230957031, 75.84088134765625, 47.26053237915039, -0.019612648, 0.04533044, -0.28626442
765, 3564299348, -91.55603790283203, 75.81391906738281, 47.45060348510742, -0.038720153, 0.05693009, -0.20042515
766, 3564316015, -91.32913970947266, 75.78075408935547, 47.65679168701172, -0.017734692, 0.067419104, -0.12242508
767, 3564332682, -91.06686401367188, 75.74744415283203, 47.890724182128906, 0.008972313, 0.083797015, -0.14225101
768, 3564349349, -90.74913787841797, 75.7125015258789, 48.16413116455078, -0.02731345, 0.08704176, -0.15639687
769, 3564366016, -90.37127685546875, 75.67367553710938, 48.486637115478516, -0.052743748, 0.065676376, -0.17359066
770, 3564382683, -89.94232177734375, 75.6327896118164, 48.87400817871094, -0.10637976, 0.031981576, -0.23486519
771, 3564399350, -89.49026489257812, 75.58488464355469, 49.323612213134766, -0.11694902, 0.07403755, -0.25762844
772, 3564416017, -89.04027557373047, 75.53173828125, 49.80765151977539, -0.12750979, 0.15614124, -0.27549267
773, 3564432684, -88.61204528808594, 75.47611236572266, 50.268211364746094, -0.054258257, 0.22819147, -0.23419285
774, 3564449351, -88.15062713623047, 75.4151840209961, 50.727394104003906, -0.0037469713, 0.2871889, -0.16694641
775, 3564466018, -87.5777816772461, 75.34385681152344, 51.25108337402344, 0.015368304, 0.2638937, -0.14777756
776, 3564482685, -86.94109344482422, 75.26322174072266, 51.83025360107422, -0.07627715, 0.203855, -0.16086864
777, 3564499352, -86.25447845458984, 75.16527557373047, 52.485347747802734, -0.11221921, 0.21968955, -0.07987404
778, 3564516019, -85.4873046875, 75.0300064086914, 53.253173828125, -0.059387784, 0.3072465, 0.057850838
779, 3564532686, -84.49906158447266, 74.85457611083984, 54.23695755004883, 0.065694705, 0.44153622, 0.088415146
780, 3564549353, -83.2804946899414, 74.64024353027344, 55.453453063964844, 0.04981763, 0.52714884, 0.05633831
781, 3564566020, -81.95780944824219, 74.38248443603516, 56.79014587402344, -0.04625813, 0.60352385, -0.0091609955
782, 3564582687, -80.58609008789062, 74.0713882446289, 58.207916259765625, -0.1259534, 0.7069122, 0.0635128
783, 3564599354, -79.16886901855469, 73.69309997558594, 59.68070983886719, -0.03571858, 0.79506004, 0.14412785
784, 3564616021, -77.59828186035156, 73.20069122314453, 61.2902946472168, 0.15872343, 0.8637508, 0.4300146
785, 3564632688, -75.73661804199219, 72.55447387695312, 63.19485092163086, 0.3377778, 1.0427979, 0.7244406
786, 3564649355, -73.6548080444336, 71.74295806884766, 65.33915710449219, 0.4142159, 1.0747133, 0.78220654
787, 3564666022, -71.40302276611328, 70.70803833007812, 67.69532775878906, 0.16240753, 0.9654539, 1.0404892
788, 3564682689, -69.09902954101562, 69.4194107055664, 70.26495361328125, -0.1450993, 1.0717422, 1.3195391
789, 3564699356, -67.00877380371094, 67.87841796875, 72.81620788574219, -0.08451254, 1.4094566, 1.5009346
790, 3564716023, -65.17383575439453, 66.08697509765625, 75.14705657958984, 0.16604622, 1.8137764, 1.5364218
791, 3564732690, -63.538997650146484, 64.06046295166016, 77.15955352783203, 0.26444858, 2.1703687, 1.6126337
792, 3564749357, -62.07672882080078, 61.84199523925781, 78.83769989013672, 0.2790798, 2.3512886, 1.6634693
793, 3564766024, -60.71354675292969, 59.46790313720703, 80.23360443115234, 0.2785794, 2.2441773, 1.7332134
794, 3564782691, -59.44865036010742, 56.97262191772461, 81.3612289428711, 0.30866176, 1.9461098, 1.5822229
795, 3564799358, -58.34724807739258, 54.385353088378906, 82.25643157958984, 0.282782, 1.5953239, 1.40102
796, 3564816025, -57.53596878051758, 51.67305374145508, 82.9486312866211, 0.10772728, 1.355712, 1.4012289
797, 3564832692, -56.918601989746094, 48.81324768066406, 83.53206634521484, 0.17674354, 1.1321076, 1.5171261
798, 3564849359, -56.439971923828125, 45.86650848388672, 84.03840637207031, 0.15923226, 0.7450771, 1.6528263
799, 3564866026, -55.99966812133789, 42.84598922729492, 84.5501708984375, -0.068844266, 0.30003688, 1.560235
800, 3564882693, -55.63275146484375, 39.72967529296875, 85.06092071533203, -0.28053796, 0.14086814, 1.3816128
801, 3564899360, -55.368499755859375, 36.55933380126953, 85.49655151367188, -0.17436321, 0.1996581, 1.1481009
802, 3564916027, -55.17247772216797, 33.3808708190918, 85.82621765136719, -0.08511233, 0.19162771, 0.9883127
803, 3564932694, -54.990234375, 30.222164154052734, 86.09905242919922, -0.29170814, 0.11166953, 0.805604
804, 3564949361, -54.74409103393555, 27.102060317993164, 86.35235595703125, -0.43507823, 0.022398453, 0.4156084
805, 3564966028, -54.44344711303711, 24.009803771972656, 86.57306671142578, -0.46471256, 0.1327392, 0.21495533
806, 3564982695, -54.10647201538086, 20.947036743164062, 86.7336654663086, -0.52714807, 0.14673156, 0.016025543
807, 3564999362, -53.72063064575195, 17.971084594726562, 86.86978912353516, -0.67740035, 0.24295433, -0.13362598
808, 3565016029, -53.31300735473633, 15.146940231323242, 86.97386932373047, -0.7872134, 0.16359472, -0.42155552
809, 3565032696, -52.866294860839844, 12.463258743286133, 87.04366302490234, -0.86066604, 0.016868299, -0.59498596
810, 3565049363, -52.415504455566406, 9.906612396240234, 87.11648559570312, -1.0068674, 0.08309116, -0.80971336
811, 3565066030, -51.96415328979492, 7.537422180175781, 87.2049789428711, -1.528921, 0.13561067, -0.91728306
812, 3565082697, -51.461181640625, 5.387465953826904, 87.3383560180664, -2.0028274, -0.121900834, -0.8847494
813, 3565099364, -50.90328598022461, 3.4228503704071045, 87.52497863769531, -1.9799305, -0.27220482, -1.0196295
814, 3565116031, -50.3332405090332, 1.60059654712677, 87.70790100097656, -1.8533835, -0.38499883, -1.305172
815, 3565132698, -49.823848724365234, -0.12220925092697144, 87.90412139892578, -2.049686, -0.6296539, -1.4078274
816, 3565149365, -49.3422737121582, -1.71896231174469, 88.17264556884766, -2.1682012, -0.63284564, -1.2840462
817, 3565166032, -48.79413604736328, -3.102112054824829, 88.55096435546875, -2.0409944, -0.4055694, -1.1945229
818, 3565182699, -48.15562438964844, -4.2582902908325195, 89.03445434570312, -1.8304832, -0.44758257, -1.286212
819, 3565199366, -47.50978469848633, -5.229948997497559, 89.6209945678711, -1.7960502, -0.7532808, -1.5003729
820, 3565216033, -46.92393112182617, -6.0694899559021, 90.26985931396484, -1.7562487, -1.1024015, -1.7295055
821, 3565232700, -46.45857620239258, -6.787388801574707, 90.97615051269531, -1.6683879, -1.2728027, -1.6016216
822, 3565249367, -46.127410888671875, -7.375467300415039, 91.76378631591797, -1.5429317, -1.4687574, -1.3343878
823, 3565266034, -45.866302490234375, -7.843972206115723, 92.69392395019531, -1.5433886, -1.6499094, -1.1709185
824, 3565282701, -45.61724853515625, -8.158839225769043, 93.79666137695312, -1.6339206, -1.7321463, -1.107542
825, 3565299368, -45.31092071533203, -8.32944107055664, 95.08306121826172, -1.5850688, -1.9762732, -1.2709408
826, 3565316035, -44.97218704223633, -8.389756202697754, 96.53300476074219, -1.3914278, -1.9969586, -1.4669619
827, 3565332702, -44.70801544189453, -8.347214698791504, 98.07234191894531, -1.2322904, -1.9147877, -1.6269131
828, 3565349369, -44.61770248413086, -8.205519676208496, 99.6780776977539, -1.3901733, -2.0147648, -1.6640892
829, 3565366036, -44.67349624633789, -7.933084011077881, 101.35652160644531, -1.4683248, -2.1336677, -1.5161877
830, 3565382703, -44.80106735229492, -7.5166192054748535, 103.11888122558594, -1.1894145, -2.2282991, -1.4226618
831, 3565399370, -44.93272018432617, -6.9899983406066895, 104.97154998779297, -0.6397382, -2.4678915, -1.3776417
832, 3565416037, -45.057640075683594, -6.368292808532715, 106.93350219726562, -0.18749104, -2.695426, -1.2815685
833, 3565432704, -45.205345153808594, -5.658566951751709, 109.01203155517578, 0.24907747, -2.8513484, -1.2383642
834, 3565449371, -45.409366607666016, -4.909832000732422, 111.2020492553711, 0.6506227, -3.0345564, -0.98608685
835, 3565466038, -45.72984313964844, -4.160330295562744, 113.5023193359375, 1.0184853, -2.922858, -0.7875881
836, 3565482705, -46.164955139160156, -3.365177631378174, 115.88788604736328, 1.0266902, -2.3412411, -0.86508465
837, 3565499372, -46.690452575683594, -2.451084852218628, 118.35778045654297, 1.0911602, -1.8912817, -1.0745258
838, 3565516039, -47.270538330078125, -1.405964732170105, 120.87902069091797, 1.6137909, -1.3565868, -1.0196772
839, 3565532706, -47.87630081176758, -0.31734246015548706, 123.29254913330078, 2.405297, -0.69935286, -0.48524857
840, 3565549373, -48.58439254760742, 0.7658662796020508, 125.3938217163086, 2.9911075, -0.2847701, 0.09749985
841, 3565566040, -49.048091888427734, 1.6161004304885864, 126.73763275146484, 5.591443, 0.09883112, 1.4103479
842, 3565582707, -49.490943908691406, 1.8272143602371216, 127.1982421875, 7.0720377, 1.1075757, 1.2344599
843, 3565599374, -50.36380386352539, 2.0667340755462646, 126.35530090332031, 8.558686, 3.393367, 3.989894
844, 3565616041, -50.727691650390625, 1.7863309383392334, 125.23453521728516, 7.2804856, 3.6052232, 6.718897
845, 3565632708, -50.20679473876953, 1.4649193286895752, 123.78752136230469, 6.2267747, 3.6391761, 5.2094116
846, 3565649375, -48.48481369018555, 1.2837015390396118, 122.8193588256836, 3.862747, -0.30232516, 2.0383463
847, 3565666042, -46.18380355834961, 0.902822732925415, 122.37184143066406, 2.2179263, -0.9981019, 1.4529924
848, 3565682709, -44.49358367919922, 0.500703752040863, 122.04822540283203, 0.8720197, -2.2541342, -0.61829853
849, 3565699376, -44.109375, 0.006580887362360954, 121.69068145751953, -0.60637176, -5.3436975, -1.9961662
850, 3565716043, -44.89473342895508, -0.7923597097396851, 121.34710693359375, -0.9130588, -4.954627, -1.6656599
851, 3565732710, -46.3966064453125, -1.7256146669387817, 120.91197204589844, -0.4035332, -2.2202625, 0.0017223358
852, 3565749377, -47.981319427490234, -2.638852834701538, 120.52835845947266, -0.2934971, -1.0952576, 1.2670727
853, 3565766044, -49.036659240722656, -3.4994306564331055, 120.28416442871094, -0.30018026, -0.9341383, 1.227582
854, 3565782711, -49.52971267700195, -4.315978527069092, 120.196533203125, -0.16600206, -1.0437804, 1.2602615
855, 3565799378, -49.751407623291016, -5.302871227264404, 120.285400390625, -0.15386207, -1.480548, 1.5741491
856, 3565816045, -49.9615592956543, -6.443314552307129, 120.35584259033203, -0.76353824, -0.39465034, 1.6174011
857, 3565832712, -50.18632507324219, -7.652472496032715, 120.51472473144531, -0.80364937, 0.23631735, 1.135437
858, 3565849379, -50.24650955200195, -8.90481185913086, 120.71385192871094, 0.03853788, 0.84397656, 1.2971373
859, 3565866046, -50.21542739868164, -10.186768531799316, 120.97181701660156, 0.2213109, 0.9937576, 1.2051325
860, 3565882713, -50.177642822265625, -11.431650161743164, 121.36560821533203, -0.57897747, 0.6466504, 0.6953058
861, 3565899380, -50.19276428222656, -12.564042091369629, 121.92706298828125, -1.1156929, 0.5027446, -0.14376545
862, 3565916047, -50.36537170410156, -13.576072692871094, 122.68164825439453, -1.0015833, 0.39889327, -0.2634039
863, 3565932714, -50.79590606689453, -14.490028381347656, 123.61612701416016, -0.9307967, 0.0054898136, -0.17189884
864, 3565949381, -51.46479797363281, -15.361501693725586, 124.60343933105469, -0.68724716, -0.14320916, -0.16441345
865, 3565966048, -52.3061408996582, -16.291263580322266, 125.60665893554688, -0.36674565, -0.30451074, 0.39790344
866, 3565982715, -53.224609375, -17.33959197998047, 126.5855484008789, 0.19874214, -0.40959707, 0.99895763
867, 3565999382, -54.02424240112305, -18.454078674316406, 127.55188751220703, 0.322907, -0.6118894, 1.0458307
868, 3566016049, -54.61954116821289, -19.54999351501465, 128.6229248046875, -0.10400996, -0.5410761, 0.58187485
869, 3566032716, -55.092899322509766, -20.588727951049805, 129.8158416748047, -0.5079542, -0.39475378, 0.15850067
870, 3566049383, -55.52957534790039, -21.677980422973633, 131.10198974609375, -0.35588235, -0.30283448, 0.02417183
871, 3566066050, -55.971473693847656, -22.834951400756836, 132.36721801757812, -0.26908457, 0.005505711, 0.18011093
872, 3566082717, -56.465545654296875, -24.02818489074707, 133.54611206054688, -0.4316016, 0.34115463, 0.112309456
873, 3566099384, -56.9986457824707, -25.22867202758789, 134.70565795898438, -0.7893113, 0.54634106, -0.06659794
874, 3566116051, -57.51392364501953, -26.377077102661133, 135.86874389648438, -0.9942334, 0.57923657, -0.19964123
875, 3566132718, -58.04692840576172, -27.438451766967773, 137.0475616455078, -1.1670765, 0.6312222, -0.4534855
876, 3566149385, -58.641937255859375, -28.394649505615234, 138.18807983398438, -1.0479882, 0.66848284, -0.5457325
877, 3566166052, -59.26141357421875, -29.26972007751465, 139.2642059326172, -0.74503034, 0.43328664, -0.4531145
878, 3566182719, -59.844600677490234, -30.081806182861328, 140.2958984375, -0.50897026, 0.25213388, -0.42873478
879, 3566199386, -60.339263916015625, -30.804615020751953, 141.23068237304688, -0.53416604, 0.36432713, -0.49846745
880, 3566216053, -60.770965576171875, -31.429536819458008, 142.09854125976562, -0.40264562, 0.22450253, -0.6258459
881, 3566232720, -61.171024322509766, -31.979522705078125, 142.91183471679688, -0.30110413, -0.15771286, -0.7738714
882, 3566249387, -61.576087951660156, -32.50325012207031, 143.64988708496094, -0.12209328, -0.62281245, -0.8364458
883, 3566266054, -62.00811767578125, -33.04008102416992, 144.32443237304688, -0.0627003, -0.84725237, -0.66732883
884, 3566282721, -62.382022857666016, -33.58455276489258, 144.95225524902344, 0.15757261, -0.87282515, -0.38320065
885, 3566299388, -62.679527282714844, -34.15305709838867, 145.57333374023438, 0.33760536, -0.8437038, -0.32636642
886, 3566316055, -62.91203308105469, -34.71522521972656, 146.2151336669922, 0.28579327, -0.7542671, -0.50158405
887, 3566332722, -63.08631896972656, -35.25575637817383, 146.83737182617188, 0.07137149, -0.5373739, -0.60144997
888, 3566349389, -63.207008361816406, -35.77076721191406, 147.38165283203125, -0.008830244, -0.46739963, -0.57438374
889, 3566366056, -63.31793212890625, -36.27827835083008, 147.8593292236328, -0.02375071, -0.5346881, -0.5013952
890, 3566382723, -63.33683776855469, -36.7573356628418, 148.2668914794922, 0.13052955, -0.36654684, -0.2885189
891, 3566399390, -63.248939514160156, -37.21919250488281, 148.5976104736328, 0.11959553, -0.14023966, -0.18683147
892, 3566416057, -63.11383819580078, -37.64202117919922, 148.91525268554688, -0.27217183, -0.044731256, -0.42423153
893, 3566432724, -62.94386291503906, -37.95478057861328, 149.1793670654297, -0.751568, 0.24418779, -0.6889019
894, 3566449391, -62.733463287353516, -38.14746856689453, 149.33518981933594, -0.8661344, 0.55963075, -0.5887146
895, 3566466058, -62.5123291015625, -38.23321533203125, 149.35484313964844, -0.87385863, 0.8029063, -0.33184147
896, 3566482725, -62.25621032714844, -38.21026611328125, 149.25450134277344, -0.913961, 1.0104538, -0.032749176
897, 3566499392, -61.937896728515625, -38.069889068603516, 149.03323364257812, -1.057268, 1.104208, 0.10921669
898, 3566516059, -61.511024475097656, -37.77804946899414, 148.68447875976562, -1.2410871, 1.2973166, -0.0054512024
899, 3566532726, -61.028682708740234, -37.29714584350586, 148.223876953125, -1.5147911, 1.5188063, -0.08912182
900, 3566549393, -60.60663986206055, -36.6411018371582, 147.6967315673828, -1.7123281, 1.6621158, 0.019289017
901, 3566566060, -60.262596130371094, -35.8071174621582, 147.0698699951172, -1.6526542, 1.5673828, 0.29401684
902, 3566582727, -59.9665412902832, -34.81979751586914, 146.335205078125, -1.4265227, 1.5946001, 0.55938625
903, 3566599394, -59.67905807495117, -33.75371170043945, 145.49415588378906, -0.87382, 1.8245462, 0.9107199
904, 3566616061, -59.35309600830078, -32.672298431396484, 144.60032653808594, -0.48374483, 1.7459526, 1.2122793
905, 3566632728, -58.95986557006836, -31.531227111816406, 143.6761474609375, -0.8794856, 1.500465, 1.374835
906, 3566649395, -58.61757278442383, -30.297147750854492, 142.6282196044922, -1.5251328, 1.5518006, 1.4172783
907, 3566666062, -58.421878814697266, -28.991350173950195, 141.44326782226562, -1.8548775, 1.5671791, 1.5811234
908, 3566682729, -58.319515228271484, -27.6462459564209, 140.13778686523438, -1.1878421, 1.2998493, 1.7738533
909, 3566699396, -58.053138732910156, -26.232959747314453, 138.7223663330078, 0.18858512, 1.0408057, 1.456439
910, 3566716063, -57.49811935424805, -24.717676162719727, 137.24066162109375, 0.48428395, 0.6352957, 0.523633
911, 3566732730, -57.35798263549805, -23.60547637939453, 136.180419921875, 1.4354811, -4.111749, -1.2096157
912, 3566749397, -61.675025939941406, -25.136611938476562, 137.19888305664062, 15.96262, -31.23721, -7.868126
913, 3566766064, -63.63901901245117, -25.608261108398438, 136.16580200195312, 14.622417, -20.030203, -6.5954933
914, 3566782731, -62.37904739379883, -26.0054931640625, 136.0657196044922, 3.0964837, 3.306812, 10.875393
915, 3566799398, -61.8663444519043, -26.10991668701172, 136.11866760253906, -1.3417661, 12.7363615, 8.983387
916, 3566816065, -60.16627502441406, -25.875446319580078, 136.2208709716797, -4.4327583, 7.7340465, -2.171092
917, 3566832732, -57.601280212402344, -25.212867736816406, 136.2652130126953, -1.8702232, -3.405285, -1.9875984
918, 3566849399, -56.08083724975586, -24.769588470458984, 135.9639434814453, 0.40442613, -4.5388894, -3.1647997
919, 3566866066, -55.83578109741211, -24.391719818115234, 134.94891357421875, -0.47142902, -3.4479477, -4.5054173
920, 3566882733, -56.465606689453125, -24.01714324951172, 134.2527313232422, 0.20712398, -2.30959, -1.9922814
921, 3566899400, -57.056724548339844, -23.682220458984375, 133.98216247558594, 1.2606448, 0.6422652, 0.7499037
922, 3566916067, -57.06903076171875, -23.188833236694336, 133.89117431640625, 1.0943556, 1.3462143, 1.288311
923, 3566932734, -56.620208740234375, -22.525697708129883, 133.864990234375, -0.48920694, 0.38662568, -0.007929802
924, 3566949401, -56.07148742675781, -21.88603401184082, 133.83738708496094, -1.0764294, -0.25744915, -1.2389822
925, 3566966068, -55.75193786621094, -21.2906436920166, 133.82217407226562, -0.403612, -0.6787998, -1.3031816
926, 3566982735, -55.852474212646484, -20.741395950317383, 133.8358612060547, -0.07230018, -1.292277, -1.1505203
927, 3566999402, -56.29130554199219, -20.266408920288086, 133.89085388183594, -0.19050501, -1.564469, -1.1596851
928, 3567016069, -56.845802307128906, -19.852872848510742, 133.88575744628906, 0.2698908, -1.0908829, -0.71064854
929, 3567032736, -57.50177764892578, -19.50071907043457, 133.78567504882812, 0.8858887, -1.0636292, -0.020264626
930, 3567049403, -58.1933479309082, -19.17546272277832, 133.70750427246094, 1.3465449, -1.4980656, 0.24382877
931, 3567066070, -58.698829650878906, -18.81338119506836, 133.74534606933594, 1.402368, -1.9603246, 0.36163712
932, 3567082737, -58.89466094970703, -18.421344757080078, 133.92588806152344, 1.12074, -1.9619015, 0.43640995
933, 3567099404, -58.917354583740234, -18.003170013427734, 134.21783447265625, 0.7207134, -1.7585181, 0.1728344
934, 3567116071, -58.94294738769531, -17.567874908447266, 134.5946807861328, 0.60848933, -1.5707364, -0.36770535
935, 3567132738, -59.12036895751953, -17.13329315185547, 135.05422973632812, 0.6794419, -1.3725975, -0.6549959
936, 3567149405, -59.50212860107422, -16.70865249633789, 135.53656005859375, 0.7183551, -1.2306342, -0.6599808
937, 3567166072, -59.948795318603516, -16.28811264038086, 135.93727111816406, 0.9681486, -1.1270887, -0.7008467
938, 3567182739, -60.317081451416016, -15.8576078414917, 136.24844360351562, 1.1063068, -1.0685569, -0.7526684
939, 3567199406, -60.627418518066406, -15.403738021850586, 136.5373077392578, 0.9271102, -1.125715, -0.7921152
940, 3567216073, -60.91078186035156, -14.876626968383789, 136.87022399902344, 0.6586936, -1.195578, -0.93817043
941, 3567232740, -61.04777526855469, -14.223082542419434, 137.18527221679688, 0.7560829, -1.2504665, -1.0788527
942, 3567249407, -60.99592590332031, -13.48691177368164, 137.4013671875, 0.9399776, -1.3915288, -1.1234865
943, 3567266074, -60.80960464477539, -12.75318717956543, 137.45941162109375, 1.1331547, -1.5872916, -1.3375378
944, 3567282741, -60.50852966308594, -12.015817642211914, 137.3804473876953, 1.2280549, -1.6959116, -1.5913019
945, 3567299408, -60.18880844116211, -11.225600242614746, 137.24156188964844, 1.0861574, -1.9280654, -1.5162725
946, 3567316075, -59.89645767211914, -10.315667152404785, 137.10546875, 0.80129665, -1.933282, -1.3357592
947, 3567332742, -59.537139892578125, -9.183211326599121, 136.974365234375, 0.3802388, -1.7718122, -0.8779173
948, 3567349409, -59.01325988769531, -7.874206066131592, 136.82066345214844, 0.45921743, -1.4246842, -0.44896317
949, 3567366076, -58.37281799316406, -6.511320114135742, 136.5553436279297, 0.29997617, -1.3254191, -0.11838436
950, 3567382743, -57.76778793334961, -5.14085054397583, 136.17996215820312, -0.085243486, -1.228199, -0.09064102
951, 3567399410, -57.23189926147461, -3.6982502937316895, 135.67486572265625, -0.31385013, -1.2767009, -0.012117386
952, 3567416077, -56.691410064697266, -2.126854419708252, 135.05343627929688, -0.2991798, -1.3800768, 0.13805771
953, 3567432744, -56.102928161621094, -0.42083051800727844, 134.40626525878906, -0.20249738, -1.1174384, 0.41146755
954, 3567449411, -55.49327850341797, 1.362317442893982, 133.7746124267578, -0.27272916, -0.7980305, 0.8169775
955, 3567466078, -54.8942985534668, 3.1433253288269043, 133.1357421875, -0.5816108, -0.53222066, 0.9658785
956, 3567482745, -54.33285903930664, 4.92816162109375, 132.4005889892578, -0.81952643, -0.41256714, 0.9133873
957, 3567499412, -53.770263671875, 6.703451633453369, 131.51060485839844, -0.56517327, -0.2846072, 1.068965
958, 3567516079, -53.19728469848633, 8.425393104553223, 130.55267333984375, -0.09670869, 0.0151540665, 1.207613
959, 3567532746, -52.67554473876953, 10.043076515197754, 129.65171813964844, -0.107736036, 0.19589207, 1.3079195
960, 3567549413, -52.28228759765625, 11.558737754821777, 128.83197021484375, -0.2676562, 0.25158697, 1.3510847
961, 3567566080, -51.93222427368164, 13.055719375610352, 128.01882934570312, -0.30429327, 0.31461874, 1.4121304
962, 3567582747, -51.43136215209961, 14.562923431396484, 127.15946197509766, -0.25356907, 0.51633584, 1.4469929
963, 3567599414, -50.79473876953125, 16.025508880615234, 126.23400115966797, -0.29237315, 0.70234376, 1.3398342
964, 3567616081, -50.10219192504883, 17.40499496459961, 125.23819732666016, -0.5193907, 0.74917483, 0.8479128
965, 3567632748, -49.50779724121094, 18.728769302368164, 124.19673156738281, -0.6862081, 0.58590233, 0.44333076
966, 3567649415, -49.07075881958008, 20.045625686645508, 123.11627960205078, -0.6751569, 0.53900146, 0.22496796
967, 3567666082, -48.76808166503906, 21.396421432495117, 121.9963607788086, -0.61928654, 0.6968051, 0.08076477
968, 3567682749, -48.55454635620117, 22.808088302612305, 120.81414794921875, -0.55827135, 1.0394651, -0.101088524
969, 3567699416, -48.46450424194336, 24.262102127075195, 119.55419921875, -0.38545424, 1.2935448, -0.03150463
970, 3567716083, -48.459651947021484, 25.723953247070312, 118.20732879638672, -0.13006699, 1.2667266, 0.13518333
971, 3567732750, -48.41326904296875, 27.148597717285156, 116.83794403076172, 0.03337797, 1.0998001, 0.26870632
972, 3567749417, -48.32748031616211, 28.53060531616211, 115.49517822265625, 0.017021278, 0.8234238, 0.35415077
973, 3567766084, -48.32334518432617, 29.8514347076416, 114.2038345336914, -0.15962602, 0.6045399, 0.4058962
974, 3567782751, -48.4594841003418, 31.08323860168457, 112.94539642333984, -0.21501394, 0.62471974, 0.41640663
975, 3567799418, -48.83161926269531, 32.20012283325195, 111.66988372802734, -0.23041308, 0.59874463, 0.57718277
976, 3567816085, -49.47077560424805, 33.16499710083008, 110.38016510009766, -0.15498713, 0.54476625, 0.8362789
977, 3567832752, -50.233577728271484, 33.998416900634766, 109.14603424072266, -0.10873933, 0.71763617, 1.0688009
978, 3567849419, -50.922203063964844, 34.74807357788086, 108.03762817382812, -0.0051735425, 0.9942445, 1.1590433
979, 3567866086, -51.40573501586914, 35.46041488647461, 107.08534240722656, -0.0889258, 1.1991479, 1.1724682
980, 3567882753, -51.65810775756836, 36.140235900878906, 106.27511596679688, -0.30211323, 1.067362, 1.0259409
981, 3567899420, -51.771968841552734, 36.744903564453125, 105.56021118164062, -0.5066067, 0.64505494, 0.879508
982, 3567916087, -51.903106689453125, 37.22982406616211, 104.86116027832031, -0.7506172, 0.2579093, 0.7165699
983, 3567932754, -52.1663932800293, 37.579429626464844, 104.17927551269531, -1.0119522, 0.111749105, 0.44946575
984, 3567949421, -52.61610412597656, 37.82984924316406, 103.50487518310547, -1.1940225, 0.20939721, 0.29265404
985, 3567966088, -53.17424774169922, 38.02694320678711, 102.86884307861328, -1.0202076, 0.47603813, 0.3530445
986, 3567982755, -53.67707061767578, 38.193824768066406, 102.30445861816406, -0.7941624, 0.71568805, 0.5454006
987, 3567999422, -53.97651672363281, 38.32825469970703, 101.8348388671875, -0.6658949, 0.7306385, 0.6200838
988, 3568016089, -54.05608367919922, 38.42919158935547, 101.465576171875, -0.6436423, 0.51872694, 0.58680534
989, 3568032756, -54.021461486816406, 38.4854850769043, 101.16500091552734, -0.77214295, 0.2042021, 0.46691608
990, 3568049423, -53.967445373535156, 38.485713958740234, 100.91001892089844, -0.93437994, 0.010586691, 0.19256878
991, 3568066090, -53.941558837890625, 38.42983627319336, 100.70941925048828, -0.9251931, 0.046469685, 0.0015974045
992, 3568082757, -53.94748306274414, 38.32624435424805, 100.55049133300781, -0.7898532, 0.13021173, -0.0041007996
993, 3568099424, -53.93368148803711, 38.17973327636719, 100.42644500732422, -0.664835, 0.10625302, 0.079315186
994, 3568116091, -53.90717315673828, 37.99690246582031, 100.34156799316406, -0.6010569, 0.012427321, 0.18018436
995, 3568132758, -53.89153289794922, 37.78534698486328, 100.27095031738281, -0.6205689, -0.002192215, 0.25060272
996, 3568149425, -53.83784484863281, 37.54137420654297, 100.24404907226562, -0.51069754, 0.054368857, 0.23062801
997, 3568166092, -53.711639404296875, 37.277198791503906, 100.27595520019531, -0.42843187, 0.03557879, 0.25938225
998, 3568182759, -53.51507568359375, 37.014686584472656, 100.37054443359375, -0.37630898, -0.044864193, 0.23478603
999, 3568199426, -53.258689880371094, 36.76480484008789, 100.52655029296875, -0.32021785, -0.08560144, 0.12881088
1000, 3568216093, -52.98542022705078, 36.531837463378906, 100.73206329345703, -0.32481658, -0.11269836, 0.11965752
1001, 3568232760, -52.74412155151367, 36.31047058105469, 100.95218658447266, -0.2316063, -0.19859461, 0.14348316
1002, 3568249427, -52.53562927246094, 36.09724044799805, 101.17323303222656, -0.119891845, -0.27616838, 0.15666866
1003, 3568266094, -52.349632263183594, 35.89216995239258, 101.4012222290039, 0.004836474, -0.2604563, 0.1500845
1004, 3568282761, -52.173255920410156, 35.7099609375, 101.6500015258789, 0.046972644, -0.29649284, 0.029503822
1005, 3568299428, -51.9740104675293, 35.55384063720703, 101.9609603881836, 0.1185772, -0.30104825, -0.030273438
1006, 3568316095, -51.76879119873047, 35.428707122802734, 102.32588958740234, 0.1327715, -0.2873916, -0.05397892
1007, 3568332762, -51.571044921875, 35.337608337402344, 102.71786499023438, 0.1421396, -0.20683554, -0.11022377
1008, 3568349429, -51.40523147583008, 35.2817268371582, 103.11376190185547, 0.16609582, -0.1407879, -0.17064953
1009, 3568366096, -51.268035888671875, 35.27647018432617, 103.4852523803711, 0.22246216, -0.069185086, -0.2827978
1010, 3568382763, -51.16743469238281, 35.347389221191406, 103.82869720458984, 0.18701614, -0.12548487, -0.37342358
1011, 3568399430, -51.10655212402344, 35.48579788208008, 104.14454650878906, 0.21507742, -0.17706093, -0.39676857
1012, 3568416097, -51.10664749145508, 35.68376541137695, 104.41848754882812, 0.21731974, -0.24056822, -0.3445263
1013, 3568432764, -51.166988372802734, 35.92205047607422, 104.65797424316406, 0.1768264, -0.24287276, -0.3131733
1014, 3568449431, -51.2747802734375, 36.22589111328125, 104.85826873779297, 0.25480315, -0.10129603, -0.30959034
1015, 3568466098, -51.42216110229492, 36.60198211669922, 105.01947021484375, 0.20134695, 0.018609019, -0.24841785
1016, 3568482765, -51.5898323059082, 37.035850524902344, 105.11357116699219, 0.16668959, 0.021196852, -0.18064976
1017, 3568499432, -51.718997955322266, 37.508399963378906, 105.18872833251953, 0.13556318, -0.06540883, -0.20986557
1018, 3568516099, -51.86302947998047, 37.9825325012207, 105.2585220336914, 0.030066684, -0.090525426, -0.13754463
1019, 3568532766, -52.03303527832031, 38.40602111816406, 105.34949493408203, -0.11147837, 0.0020093815, 0.080028534
1020, 3568549433, -52.194671630859375, 38.764678955078125, 105.44013214111328, -0.1267034, 0.1593082, 0.5005293
1021, 3568566100, -52.31013870239258, 39.068748474121094, 105.509033203125, -0.10346409, 0.21611042, 0.6048708
1022, 3568582767, -52.361663818359375, 39.330116271972656, 105.60376739501953, -0.15430284, 0.1932493, 0.36166477
1023, 3568599434, -52.41939926147461, 39.55296325683594, 105.7255630493164, -0.30362552, 0.088019624, 0.26515865
1024, 3568616101, -52.514801025390625, 39.72064208984375, 105.85859680175781, -0.32240757, 0.07733911, 0.37061787
1025, 3568632768, -52.64229202270508, 39.81542205810547, 105.98336029052734, -0.21479371, 0.28705144, 0.53327084
1026, 3568649435, -52.72719192504883, 39.834102630615234, 106.09886169433594, -0.05924172, 0.49576214, 0.6284914
1027, 3568666102, -52.737831115722656, 39.80221939086914, 106.23686981201172, -0.042003058, 0.42999455, 0.60677147
1028, 3568682769, -52.70769500732422, 39.76887893676758, 106.40196228027344, -0.09739778, 0.1648265, 0.4274149
1029, 3568699436, -52.69681167602539, 39.71471405029297, 106.57488250732422, 0.01695111, 0.07572552, 0.35426426
1030, 3568716103, -52.750396728515625, 39.59099578857422, 106.75415802001953, 0.041403428, 0.3688108, 0.40098476
1031, 3568732770, -52.79149627685547, 39.38580322265625, 106.91796875, 0.11578692, 0.74766046, 0.42180347
1032, 3568749437, -52.77388000488281, 39.151527404785156, 107.02336120605469, 0.1286839, 0.78727376, 0.29069424
1033, 3568766104, -52.70499801635742, 38.936317443847656, 107.0792465209961, 0.031621497, 0.573975, 0.116889
1034, 3568782771, -52.66484069824219, 38.72106170654297, 107.10014343261719, 0.03438501, 0.33325157, 0.08442879
1035, 3568799438, -52.683837890625, 38.44804382324219, 107.09989166259766, -0.025269305, 0.17749417, 0.25225163
1036, 3568816105, -52.73402786254883, 38.11032485961914, 107.05813598632812, -0.037855383, 0.16506666, 0.35484982
1037, 3568832772, -52.75884246826172, 37.75001907348633, 106.98540496826172, -0.0014504314, 0.18711108, 0.28609943
1038, 3568849439, -52.68218994140625, 37.36567687988281, 106.90853118896484, 0.12529734, 0.3876915, 0.35295296
1039, 3568866106, -52.5024299621582, 36.946739196777344, 106.83406829833984, 0.012843446, 0.5025377, 0.3961506
1040, 3568882773, -52.22231674194336, 36.515140533447266, 106.75580596923828, -0.17215851, 0.21222802, 0.32448387
1041, 3568899440, -51.88727569580078, 36.08390808105469, 106.68230438232422, -0.2446451, 0.043215334, 0.1641922
1042, 3568916107, -51.55072021484375, 35.64059066772461, 106.62293243408203, -0.353126, 0.030953191, 0.11729145
1043, 3568932774, -51.199283599853516, 35.166351318359375, 106.57747650146484, -0.3202773, 0.12655213, 0.10281372
1044, 3568949441, -50.878440856933594, 34.6844596862793, 106.48389434814453, -0.30400383, 0.038270112, 0.09400082
1045, 3568966108, -50.63212585449219, 34.191768646240234, 106.34500885009766, -0.23902896, -0.25816566, 0.11769009
1046, 3568982775, -50.452049255371094, 33.6745491027832, 106.21144104003906, -0.16335434, -0.4777502, 0.10991001
1047, 3568999442, -50.2939567565918, 33.11439514160156, 106.11997985839844, -0.114496075, -0.46433854, 0.21090221
1048, 3569016109, -50.15481948852539, 32.51483917236328, 106.08132934570312, -0.23148572, -0.45911014, 0.105199814
1049, 3569032776, -50.04848098754883, 31.923294067382812, 106.08252716064453, -0.3053928, -0.6266906, -0.174963
1050, 3569049443, -49.986366271972656, 31.356538772583008, 106.12004852294922, -0.22182387, -0.59550995, -0.18104935
1051, 3569066110, -49.989463806152344, 30.80718231201172, 106.18528747558594, -0.14693284, -0.60145336, 0.017084122
1052, 3569082777, -49.99125289916992, 30.249910354614258, 106.25053405761719, 0.020570457, -0.5568775, 0.14019012
1053, 3569099444, -49.92902374267578, 29.687673568725586, 106.31061553955078, 0.07081181, -0.383312, 0.22189522
1054, 3569116111, -49.80759811401367, 29.15584373474121, 106.33812713623047, 0.08543783, -0.31206253, 0.15540218
1055, 3569132778, -49.605445861816406, 28.657268524169922, 106.36922454833984, 0.048458, -0.38487723, -0.08530998
1056, 3569149445, -49.341033935546875, 28.19727897644043, 106.45211029052734, -0.15224773, -0.5016912, -0.38654327
1057, 3569166112, -49.12189865112305, 27.78861427307129, 106.5569076538086, -0.31941906, -0.7113318, -0.5143795
1058, 3569182779, -48.99021530151367, 27.402700424194336, 106.66019439697266, -0.1767594, -0.7722459, -0.41114044
1059, 3569199446, -48.90868377685547, 27.022920608520508, 106.76871490478516, -0.019190542, -0.6274797, -0.18264389
1060, 3569216113, -48.82546615600586, 26.655475616455078, 106.86627960205078, 0.16490892, -0.40075907, -0.11615181
1061, 3569232780, -48.704505920410156, 26.330102920532227, 106.97378540039062, 0.12089257, -0.27991053, -0.21673775
1062, 3569249447, -48.55780792236328, 26.062213897705078, 107.1141586303711, -0.083541825, -0.39013034, -0.35768223
1063, 3569266114, -48.44684600830078, 25.849449157714844, 107.28669738769531, -0.07849082, -0.5739453, -0.39080048
1064, 3569282781, -48.419334411621094, 25.662189483642578, 107.48938751220703, -0.012603672, -0.55334634, -0.27433014
1065, 3569299448, -48.44834899902344, 25.459205627441406, 107.70439147949219, 0.20537364, -0.23974077, -0.11891365
1066, 3569316115, -48.54393005371094, 25.19402313232422, 107.9233627319336, 0.337052, -0.005996716, 0.0810976
1067, 3569332782, -48.78120803833008, 24.811138153076172, 108.08621215820312, 0.46932232, 0.11469333, 0.57671833
1068, 3569349449, -49.18701934814453, 24.20346450805664, 108.12859344482422, 0.56145227, 0.08381445, 1.3241034
1069, 3569366116, -49.7097053527832, 23.24922752380371, 108.07874298095703, 0.41358557, 0.23931666, 2.1878777
1070, 3569382783, -50.39779281616211, 21.935632705688477, 107.95143127441406, 0.6110422, 0.52002794, 2.8687038
1071, 3569399450, -51.16828918457031, 20.272695541381836, 107.76956939697266, 1.1331198, 0.8306582, 3.8118534
