sep=,
DeviceTag:,Xsens_5,,,,,,,,,,,,,,,,,
FirmwareVersion:,2.2.1,,,,,,,,,,,,,,,,,
AppVersion:,2022.0.1,,,,,,,,,,,,,,,,,
SyncStatus:,Synced,,,,,,,,,,,,,,,,,
OutputRate:,60Hz,,,,,,,,,,,,,,,,,
FilterProfile:,General,,,,,,,,,,,,,,,,,
Measurement Mode:,Sensor fusion Mode - Complete (Euler),,,,,,,,,,,,,,,,,
StartTime:,2023-05-17 15:27:09.389 +0200,,,,,,,,,,,,,,,,,
© Xsens Technologies B. V. 2005-2023,,,,,,,,,,,,,,,,,,,

PacketCounter,SampleTimeFine,Euler_X,Euler_Y,Euler_Z,FreeAcc_X,FreeAcc_Y,FreeAcc_Z
1, 3551615761, -147.74102783203125, 52.21299743652344, -40.22405242919922, 0.5972744, 1.1210816, -1.6293049
2, 3551632428, -148.2988739013672, 52.176300048828125, -40.602230072021484, 0.6155063, 1.1203893, -1.4558659
3, 3551649095, -148.9209747314453, 52.167579650878906, -40.94260025024414, 0.5027139, 1.0671971, -0.70280266
4, 3551665762, -149.55673217773438, 52.126216888427734, -41.240055084228516, 0.61326253, 0.5147246, 0.2069149
5, 3551682429, -150.24221801757812, 52.06452178955078, -41.53612518310547, 0.66870683, -0.37834933, 0.54642296
6, 3551699096, -150.9753875732422, 52.08274459838867, -41.66663360595703, 0.3933361, -1.3827779, 0.35736847
7, 3551715763, -152.03689575195312, 52.23973846435547, -41.60341262817383, 0.24152154, -1.9536551, 0.16633415
8, 3551732430, -153.32113647460938, 52.42732620239258, -41.471858978271484, 0.8264067, -1.9246651, -0.29949093
9, 3551749097, -154.64303588867188, 52.570072174072266, -41.41154098510742, 1.2351671, -1.8028884, -0.20944786
10, 3551765764, -155.9071807861328, 52.69747543334961, -41.443359375, 1.4629225, -1.9318942, 0.1530199
11, 3551782431, -156.96351623535156, 52.821693420410156, -41.53593826293945, 1.3378185, -2.1187062, 0.04846573
13, 3551815765, -158.21527099609375, 53.042179107666016, -41.84358215332031, 0.40958, -2.1599362, -0.58213043
16, 3551865766, -159.19654846191406, 53.44051742553711, -42.75101089477539, -0.33814958, -1.868849, -0.30536366
19, 3551915767, -159.59132385253906, 53.859397888183594, -43.81771469116211, -0.37538558, -1.8958697, -0.580925
22, 3551965768, -159.484619140625, 53.930416107177734, -44.7030029296875, -0.95210886, -1.5912147, -1.2728329
25, 3552015769, -158.64219665527344, 53.46400833129883, -44.918540954589844, -2.0344512, -1.6713164, 0.25396252
29, 3552082437, -158.65869140625, 53.30629348754883, -44.75232696533203, -0.097861566, -1.8183547, 0.72672176
32, 3552132438, -158.33030700683594, 53.304588317871094, -45.25833511352539, 0.19632015, -1.4987746, -0.6798458
35, 3552182439, -156.35145568847656, 53.06236267089844, -45.94996643066406, -1.1358101, -0.9552416, -0.85592556
38, 3552232440, -153.55288696289062, 52.60444259643555, -46.66560363769531, -1.2490668, 0.60711396, 0.107990265
41, 3552282441, -152.7579803466797, 51.76004409790039, -48.11055374145508, 0.063689545, 0.099208765, -1.0296516
48, 3552399110, -153.0498046875, 49.98126983642578, -47.09740447998047, 0.1484791, 0.08050892, -0.7188444
54, 3552499112, -153.1331787109375, 48.94436264038086, -44.9765739440918, 0.74578863, -0.59057665, -0.7102251
57, 3552549113, -153.3867950439453, 48.63262176513672, -43.8880615234375, 0.6875005, -0.680605, -0.2797184
60, 3552599114, -153.60792541503906, 48.599605560302734, -42.9986457824707, 0.9589335, -0.7632116, -0.12995052
63, 3552649115, -153.97732543945312, 48.77210998535156, -42.55769729614258, 1.5123248, -0.77379405, -0.79311657
66, 3552699116, -153.67356872558594, 49.035789489746094, -42.2137336730957, -0.23064995, -0.8020872, 0.24518108
73, 3552815785, -153.42642211914062, 50.82235336303711, -41.78963851928711, 0.91647094, -0.20567907, -0.9887762
76, 3552865786, -152.0888671875, 51.48648452758789, -41.330162048339844, -0.26429278, -0.1945327, -0.20630264
79, 3552915787, -151.51849365234375, 52.52942657470703, -40.728214263916016, 0.24618332, -0.4618502, 0.3403759
82, 3552965788, -151.10606384277344, 53.68815994262695, -40.15725326538086, 1.2429788, -0.27681097, 0.0020999908
88, 3553065790, -147.8004608154297, 55.44084167480469, -38.275569915771484, -0.5804722, -0.08624516, 0.36779976
92, 3553132458, -146.10623168945312, 56.989925384521484, -36.42665100097656, 0.41811115, 0.117924094, 0.0054035187
95, 3553182459, -144.02606201171875, 58.05838394165039, -35.13747024536133, -0.34126428, 0.2969669, -0.2328949
98, 3553232460, -141.855224609375, 59.05738067626953, -33.8035888671875, -0.6600713, 0.36223358, -0.33737946
101, 3553282461, -140.00534057617188, 60.04646301269531, -32.41527557373047, -0.42509124, 0.57532996, -0.06766415
104, 3553332462, -137.9862060546875, 60.934871673583984, -31.011260986328125, -0.35867, 0.6791526, 0.34741592
110, 3553432464, -134.78843688964844, 62.78329849243164, -28.21866798400879, 0.21114777, 0.6684926, 0.3517084
114, 3553499132, -133.17816162109375, 63.912723541259766, -27.05679702758789, 0.69016397, 0.6245712, -0.12851429
117, 3553549133, -131.99697875976562, 64.47431945800781, -26.732648849487305, 0.5085666, 0.837417, -0.5341759
120, 3553599134, -130.92990112304688, 64.7789306640625, -26.530292510986328, -0.05601637, 1.004691, -0.48529243
123, 3553649135, -130.19789123535156, 65.03317260742188, -25.957088470458984, 0.1473954, 0.88527983, -0.4769745
126, 3553699136, -129.6826934814453, 65.1916732788086, -25.38484001159668, 0.3167487, 0.66877246, -0.57618237
129, 3553749137, -129.3784637451172, 65.30538177490234, -24.630868911743164, -0.09884413, 0.1875039, -0.4599867
133, 3553815805, -129.54493713378906, 65.50106048583984, -23.69156265258789, 0.24831876, -0.15393405, -0.282444
136, 3553865806, -130.00648498535156, 65.75272369384766, -23.41950035095215, 0.22783983, -0.29337707, -0.06951904
139, 3553915807, -130.5535888671875, 66.0653305053711, -23.617944717407227, 0.21523929, -0.45681623, -0.24036026
142, 3553965808, -131.09967041015625, 66.3501205444336, -24.16750717163086, -0.009469126, -0.41829532, -0.20447063
145, 3554015809, -131.70892333984375, 66.6772232055664, -24.884090423583984, -0.1358476, -0.3795507, 0.18078709
148, 3554065810, -132.68310546875, 66.95330047607422, -26.14944076538086, 0.27937242, -0.14346448, -0.07547188
155, 3554182479, -135.50338745117188, 66.98430633544922, -28.823226928710938, -0.18201666, -0.32914853, -0.41796017
158, 3554232480, -136.12608337402344, 66.50665283203125, -28.879873275756836, -1.1380545, -0.013093612, -0.36312962
161, 3554282481, -135.62667846679688, 65.73223876953125, -28.85611915588379, -1.2358137, 0.29860348, 0.45735645
164, 3554332482, -135.0152130126953, 65.07359313964844, -29.426326751708984, -0.88180304, 0.33347696, -0.0011978149
170, 3554432484, -135.43502807617188, 64.9957046508789, -28.982986450195312, 0.10688401, -0.19442968, 0.06441212
174, 3554499152, -135.02049255371094, 65.70020294189453, -27.15187644958496, 0.64428324, -0.74968994, 0.055483818
177, 3554549153, -133.83975219726562, 66.20518493652344, -26.363298416137695, 0.5452763, -0.24671471, -0.39076424
180, 3554599154, -132.47341918945312, 66.67379760742188, -25.895496368408203, -0.35986537, -0.092533916, -0.6366339
183, 3554649155, -131.5664520263672, 67.21109008789062, -25.182363510131836, -0.1512178, -0.12711383, -0.69911957
189, 3554749157, -129.4366455078125, 68.1610107421875, -24.192956924438477, -0.19050501, 0.15191996, 0.08648682
196, 3554865826, -127.47148132324219, 69.13838958740234, -22.324962615966797, 0.25266418, 0.0916944, -0.14985085
199, 3554915827, -126.75346374511719, 69.23792266845703, -21.591110229492188, 0.01967808, 0.19764066, -0.28288364
202, 3554965828, -126.08447265625, 69.26996612548828, -20.98993682861328, 0.0053460947, 0.1496703, -0.23573112
205, 3555015829, -125.53466796875, 69.18757629394531, -20.73841094970703, 0.13074324, 0.06392381, -0.25670147
208, 3555065830, -125.33329010009766, 69.04068756103516, -20.62468147277832, -0.21947487, 0.09025403, -0.027807236
211, 3555115831, -125.66639709472656, 68.93866729736328, -20.721220016479492, 0.30608144, 0.037105832, -0.17549896
218, 3555232500, -126.66619873046875, 68.63583374023438, -21.483068466186523, 0.2892328, -0.008183033, -0.10216808
221, 3555282501, -126.86829376220703, 68.56954193115234, -21.899024963378906, 0.037168864, 0.106299184, -0.17375088
224, 3555332502, -126.9689712524414, 68.5328369140625, -22.179582595825195, 0.07151129, 0.09382225, -0.18428802
227, 3555382503, -127.10592651367188, 68.52246856689453, -22.27512550354004, 0.045996062, 0.11363645, -0.20703697
233, 3555482505, -127.2147445678711, 68.47991180419922, -22.17577362060547, 0.04758859, 0.019113263, -0.13142586
237, 3555549173, -127.17988586425781, 68.46021270751953, -22.105737686157227, 0.069484256, 0.028459234, -0.21277142
240, 3555599174, -127.18768310546875, 68.41091918945312, -22.199556350708008, -0.02193735, 0.09247044, -0.16974354
243, 3555649175, -127.33349609375, 68.38751220703125, -22.229036331176758, -0.06682546, 0.072005816, -0.21421719
246, 3555699176, -127.51538848876953, 68.38362121582031, -22.23528480529785, 0.11811207, -0.031288907, -0.18776321
249, 3555749177, -127.5719223022461, 68.37679290771484, -22.221912384033203, -0.050932456, -0.052347403, -0.08058548
252, 3555799178, -127.6393814086914, 68.397216796875, -22.251232147216797, 0.1249139, -0.08261084, -0.1486988
255, 3555849179, -127.63148498535156, 68.43384552001953, -22.255157470703125, -0.04425333, -0.0105410945, -0.076244354
259, 3555915847, -127.57136535644531, 68.46805572509766, -22.27789878845215, 0.028972307, 0.05270592, -0.21660233
262, 3555965848, -127.61162567138672, 68.50398254394531, -22.187774658203125, -5.8918016E-4, -0.09256342, -0.16529655
268, 3556065850, -127.7457504272461, 68.5245361328125, -22.131223678588867, 0.050750293, -0.006073294, -0.229043
271, 3556115851, -127.76648712158203, 68.51570129394531, -22.21623420715332, -0.126432, 0.010195767, -0.16192818
274, 3556165852, -127.93567657470703, 68.52173614501953, -22.29337501525879, 0.06301478, 0.026702423, -0.12779999
277, 3556215853, -128.05300903320312, 68.54093170166016, -22.360319137573242, 0.030415643, -0.07359745, -0.06370163
284, 3556332522, -128.13624572753906, 68.59532928466797, -22.661052703857422, 0.014432567, 0.08487033, -0.15810871
287, 3556382523, -128.13555908203125, 68.61031341552734, -22.727500915527344, -0.058525477, 0.036643866, -0.22432518
293, 3556482525, -128.21484375, 68.66807556152344, -22.65411949157715, 0.0068592774, -0.031677373, -0.15579891
296, 3556532526, -128.14773559570312, 68.71453094482422, -22.47455406188965, 0.005200923, -0.0363365, -0.18364143
299, 3556582527, -128.12942504882812, 68.72163391113281, -22.337060928344727, -0.02328122, -0.05246989, -0.17220306
306, 3556699196, -128.09498596191406, 68.64239501953125, -22.21083641052246, -0.0436038, -0.05601749, -0.18072605
309, 3556749197, -128.18045043945312, 68.59081268310547, -22.261028289794922, 0.06910818, -0.014301289, -0.15874958
312, 3556799198, -128.23898315429688, 68.53616333007812, -22.3731632232666, 0.014658427, 0.029720964, -0.16545677
315, 3556849199, -128.3106231689453, 68.45480346679688, -22.52968406677246, 0.038088508, -0.0129595045, -0.19461346
318, 3556899200, -128.41233825683594, 68.3586196899414, -22.634998321533203, -0.16458912, 0.09869215, -0.17677784
325, 3557015869, -128.6376190185547, 68.24797058105469, -22.56304168701172, -0.018796546, -0.014884398, -0.13642788
331, 3557115871, -128.7314910888672, 68.10590362548828, -22.48988914489746, 0.045701522, -0.01275713, -0.17348576
334, 3557165872, -128.76272583007812, 68.04291534423828, -22.575590133666992, -0.07869232, 0.070060804, -0.20362759
337, 3557215873, -128.6428985595703, 68.01400756835938, -22.4563045501709, 0.046429563, 0.056264915, -0.17667484
340, 3557265874, -128.36236572265625, 67.97566986083984, -22.254009246826172, 0.07851016, 0.019992117, -0.16367245
347, 3557382543, -127.00712585449219, 67.7851791381836, -21.505908966064453, 0.15787446, 0.120460965, -0.1572361
350, 3557432544, -126.24761962890625, 67.63539123535156, -21.004959106445312, 0.039260164, -0.04725198, 0.028461456
353, 3557482545, -125.87409210205078, 67.42037963867188, -20.48674201965332, -0.05855313, -0.14917456, -0.25937653
356, 3557532546, -125.74137878417969, 67.20869445800781, -20.102548599243164, -0.112155445, -0.11995762, -0.23445225
362, 3557632548, -125.67142486572266, 67.27437591552734, -20.294137954711914, 0.004737022, -0.06274165, -0.29589462
366, 3557699216, -125.94147491455078, 67.43788146972656, -20.680830001831055, -0.084739685, -0.100996785, -0.16841125
369, 3557749217, -126.4078598022461, 67.55818176269531, -21.040603637695312, 0.06624734, -0.04029782, -0.07186699
372, 3557799218, -126.80164337158203, 67.68038177490234, -21.473003387451172, 0.24437867, 0.050821036, -0.109666824
375, 3557849219, -126.95291900634766, 67.73524475097656, -21.868654251098633, 0.029532207, 0.010968675, -0.13241673
378, 3557899220, -127.21611022949219, 67.74829864501953, -22.238677978515625, 0.07254214, 0.18651687, -0.24304008
385, 3558015889, -127.34481811523438, 67.6836929321289, -22.276470184326172, 0.05421843, -0.029691238, -0.097462654
388, 3558065890, -127.2270278930664, 67.63748931884766, -22.134225845336914, 0.09515472, 0.014052036, -0.13472462
394, 3558165892, -126.75453186035156, 67.66072845458984, -21.886117935180664, -0.1406329, 0.042589724, -0.24075508
397, 3558215893, -126.59296417236328, 67.74012756347656, -21.897321701049805, -0.0017418364, 0.0032293152, -0.10442352
403, 3558315895, -126.37525939941406, 67.86336517333984, -22.66660499572754, 0.3103207, -0.07722194, -0.20330048
410, 3558432564, -124.53289031982422, 67.52981567382812, -22.922531127929688, 0.2561745, 0.31401128, 0.001042366
413, 3558482565, -122.8199691772461, 67.28596496582031, -22.370983123779297, -0.06636368, 0.1869648, -0.023428917
419, 3558582567, -119.48998260498047, 66.83206176757812, -19.889163970947266, 0.07778229, 0.19913909, -0.13448334
422, 3558632568, -117.8268814086914, 66.64546966552734, -18.41061019897461, -0.36328992, 0.13225351, -0.24961662
426, 3558699236, -116.50163269042969, 66.72669982910156, -16.973596572875977, -0.25058204, -0.2534248, -0.3626356
432, 3558799238, -117.26309204101562, 67.39022064208984, -17.293441772460938, 0.115162164, -0.18861417, -0.25300503
435, 3558849239, -118.28942108154297, 67.7866439819336, -18.35983657836914, -0.010214766, 0.07155231, -0.19059944
438, 3558899240, -119.77226257324219, 68.10894775390625, -19.643924713134766, -0.163451, 0.13819605, -0.14017582
441, 3558949241, -121.71862030029297, 68.19392395019531, -20.967018127441406, 0.30720335, -0.013225932, -0.15927505
444, 3558999242, -122.80946350097656, 68.2289047241211, -21.797319412231445, 0.4186885, 0.16463271, 0.033329964
448, 3559065910, -121.83063507080078, 68.18865966796875, -21.71698570251465, 0.8941759, 0.14127159, 0.20532322
451, 3559115911, -118.74080657958984, 68.05308532714844, -20.856430053710938, 0.60508335, -0.03813511, 0.186162
454, 3559165912, -114.75887298583984, 67.6068115234375, -19.62929916381836, 0.412908, -0.07334041, 0.038172722
457, 3559215913, -110.36927032470703, 67.0693588256836, -17.660680770874023, -0.76713, 0.64597994, 0.012871742
460, 3559265914, -105.67687225341797, 66.59515380859375, -14.156437873840332, -0.33855775, 0.59781426, -0.027054787
466, 3559365916, -91.53971099853516, 66.20382690429688, -1.6642032861709595, -0.4391091, 1.2139293, 0.22733593
470, 3559432584, -75.64374542236328, 66.38037109375, 12.792789459228516, -1.139188, 1.1029593, 0.6482973
473, 3559482585, -62.257843017578125, 65.84054565429688, 26.113826751708984, -1.4679536, 0.23759428, 0.4115486
479, 3559582587, -41.654396057128906, 62.47500228881836, 51.270355224609375, -0.24085577, -0.8637873, 0.179286
482, 3559632588, -35.5085334777832, 60.56950378417969, 60.52741622924805, -0.23028673, -1.1677177, -1.0117817
485, 3559682589, -32.75246810913086, 59.11958312988281, 67.68083190917969, -0.7579643, -1.136092, -0.7973633
488, 3559732590, -32.652042388916016, 58.06074905395508, 74.24754333496094, -0.57553387, -0.8539395, -1.1210785
492, 3559799258, -33.25263977050781, 57.84925842285156, 82.33932495117188, 0.9649661, -1.1396921, -1.5379047
495, 3559849259, -33.49995040893555, 59.02482986450195, 87.5550537109375, 0.78041756, -0.17613871, -0.004430771
498, 3559899260, -34.30546188354492, 60.19883728027344, 91.86589050292969, 0.108072646, -0.11698266, 0.2631712
501, 3559949261, -36.749874114990234, 61.631004333496094, 95.71380615234375, 1.3606408, -4.3441877, -4.4425817
504, 3559999262, -41.3848991394043, 63.029869079589844, 91.19757843017578, 1.9863795, 2.5750835, 2.047491
507, 3560049263, -40.75239181518555, 63.18040466308594, 87.72216033935547, -0.6325338, 0.71397626, -0.38632965
511, 3560115931, -44.275672912597656, 63.68753433227539, 83.94989013671875, -1.9900225, -0.42349848, 0.2492075
514, 3560165932, -47.28224563598633, 64.3313217163086, 83.08306884765625, 2.1771834, 0.26832128, -0.2647705
517, 3560215933, -48.02572250366211, 65.61516571044922, 79.86859893798828, 1.9405053, -0.41930875, -0.23769951
520, 3560265934, -48.8795051574707, 67.36369323730469, 73.58859252929688, 1.06556, -0.45276618, 0.06628704
526, 3560365936, -62.909603118896484, 69.90750885009766, 51.62312316894531, -0.38055584, 0.01705605, 0.1859703
529, 3560415937, -73.91279602050781, 69.64334869384766, 39.64693832397461, -0.7577799, 0.24658442, 0.03311634
539, 3560582607, -97.47859191894531, 68.17103576660156, 8.400725364685059, -0.4571315, -0.11169971, -0.101387024
542, 3560632608, -102.49158477783203, 67.64948272705078, 1.1213895082473755, -0.74907464, 0.5124642, 0.26952553
545, 3560682609, -107.21363067626953, 67.10965728759766, -4.833134651184082, 0.33004907, 0.7334236, 0.24913883
548, 3560732610, -109.86003875732422, 66.56112670898438, -8.834547996520996, 0.35230738, 1.2635672, -0.6712713
551, 3560782611, -112.5020751953125, 65.59761810302734, -12.596024513244629, -0.7479378, -0.13808608, -0.18224144
555, 3560849279, -116.67096710205078, 64.82079315185547, -15.248430252075195, -0.3210515, 0.097271696, -0.42393208
558, 3560899280, -118.7812271118164, 65.07952117919922, -16.284208297729492, -0.5095454, 0.43599734, 0.18222427
561, 3560949281, -119.42744445800781, 65.91614532470703, -16.52278709411621, -0.2576076, 0.6376002, -0.08479023
564, 3560999282, -119.69564056396484, 66.97605895996094, -16.45701026916504, 0.07514651, -0.24633765, -0.34849262
567, 3561049283, -121.1324234008789, 67.66065979003906, -17.028547286987305, 0.7490246, -0.43522933, -0.11912155
577, 3561215953, -123.9751205444336, 67.32178497314453, -19.671159744262695, -0.39601913, 0.029796066, -0.3422327
580, 3561265954, -123.82083892822266, 67.41727447509766, -19.522584915161133, 0.131973, 0.5518367, -0.33576202
589, 3561415957, -122.79200744628906, 67.72662353515625, -17.483057022094727, 0.003974939, -0.12274237, -0.26612282
596, 3561532626, -123.05614471435547, 68.05203247070312, -17.082778930664062, 0.114997864, -0.15558112, -0.201787
599, 3561582627, -123.31864166259766, 68.18303680419922, -17.29123878479004, 0.08157753, -0.044726953, -0.14469814
602, 3561632628, -123.65654754638672, 68.31086730957031, -17.662431716918945, 0.11479558, -0.019354658, -0.26555252
605, 3561682629, -124.17172241210938, 68.3738784790039, -18.094144821166992, 0.09272089, 0.047649387, -0.31218338
608, 3561732630, -124.74530792236328, 68.38817596435547, -18.43440818786621, -0.045330774, -0.09611884, -0.19184017
611, 3561782631, -125.28528594970703, 68.40274810791016, -18.801042556762695, 0.018043341, 0.08716102, -0.09069824
615, 3561849299, -125.71403503417969, 68.47429656982422, -19.299453735351562, 0.18180588, 0.04878908, -0.11959362
621, 3561949301, -126.08092498779297, 68.5679702758789, -19.639719009399414, 0.14866818, 0.16111529, -0.12745953
624, 3561999302, -126.03668975830078, 68.64464569091797, -19.687326431274414, 0.11426329, -0.042736348, -0.1497879
627, 3562049303, -125.85676574707031, 68.66455078125, -19.600893020629883, 0.032720286, 0.11081325, -0.09702206
630, 3562099304, -125.72791290283203, 68.70100402832031, -19.454015731811523, 0.005601682, 0.011744935, -0.13274193
637, 3562215973, -125.4759292602539, 68.65454864501953, -19.250431060791016, 0.060364034, 0.03422006, -0.23114777
640, 3562265974, -125.35501098632812, 68.60356140136719, -19.184288024902344, 0.03910605, -0.05356868, -0.114935875
643, 3562315975, -125.19986724853516, 68.54200744628906, -19.17698860168457, -0.079264626, 0.17933808, -0.060110092
646, 3562365976, -125.09101104736328, 68.53034973144531, -19.203454971313477, 0.03526364, -0.022649461, -0.16918564
649, 3562415977, -125.0740966796875, 68.46586608886719, -19.260343551635742, 0.059759095, 0.023138955, -0.07656765
655, 3562515979, -124.91436767578125, 68.40896606445312, -19.389659881591797, 0.10615346, 0.032244872, -0.2546587
662, 3562632648, -124.8051528930664, 68.27469635009766, -19.473037719726562, -0.026511878, 0.04724237, -0.21172714
665, 3562682649, -124.80677795410156, 68.25384521484375, -19.319726943969727, 0.018474687, -0.007725502, -0.1949234
668, 3562732650, -124.82661437988281, 68.23881530761719, -19.29428482055664, 0.047767065, -0.011449452, -0.115517616
671, 3562782651, -124.78617858886719, 68.25628662109375, -19.242637634277344, 0.0057909973, -0.02031554, -0.108174324
674, 3562832652, -124.81134033203125, 68.2782974243164, -19.30057716369629, 0.066128545, 0.024689464, -0.2562828
677, 3562882653, -124.884765625, 68.31563568115234, -19.22214126586914, -0.033898085, 0.013153737, -0.19333935
681, 3562949321, -124.98303985595703, 68.33438873291016, -19.21407127380371, 0.085043885, -0.015934909, -0.12495899
684, 3562999322, -125.10041809082031, 68.33233642578125, -19.255666732788086, -0.0136241205, -0.0055732955, -0.18628216
687, 3563049323, -125.2473373413086, 68.30687713623047, -19.367509841918945, 0.0778148, -0.038449816, -0.17038918
690, 3563099324, -125.44922637939453, 68.22743225097656, -19.548137664794922, -0.030499572, 0.052007217, -0.128088
693, 3563149325, -125.67584991455078, 68.16841888427734, -19.771404266357422, -0.013315226, 0.03304371, -0.0628891
696, 3563199326, -125.92952728271484, 68.1331558227539, -20.00208854675293, 0.08278886, -0.0059894766, -0.09949875
703, 3563315995, -126.34024810791016, 68.07186889648438, -20.51283073425293, 0.02385252, 0.09853211, -0.22547054
706, 3563365996, -126.3897705078125, 68.07454681396484, -20.583444595336914, 0.054749947, 0.035410933, -0.13167858
709, 3563415997, -126.40088653564453, 68.0704345703125, -20.634183883666992, 0.030452635, 0.04253161, -0.14592457
712, 3563465998, -126.43939971923828, 68.0521011352539, -20.565351486206055, 0.052096512, -0.013333312, -0.11631489
715, 3563515999, -126.397216796875, 68.0505599975586, -20.573577880859375, 0.083291434, 0.047515277, -0.20438862
718, 3563566000, -126.32414245605469, 68.05550384521484, -20.58184242248535, 0.023407506, 0.0038265418, -0.15373802
722, 3563632668, -126.33362579345703, 68.0853500366211, -20.641923904418945, 0.020398797, -0.0036394615, -0.14381504
731, 3563782671, -126.43953704833984, 68.20471954345703, -20.897287368774414, 0.073171325, 0.029807465, -0.14920235
734, 3563832672, -126.4791259765625, 68.2610092163086, -21.013490676879883, 0.049804192, 0.0038770465, -0.14497948
740, 3563932674, -126.61537170410156, 68.36254119873047, -21.229825973510742, 0.108300075, -0.001794362, -0.09311199
744, 3563999342, -126.65888214111328, 68.38812255859375, -21.496387481689453, -0.0019132709, 0.011067021, -0.12344837
747, 3564049343, -126.75980377197266, 68.40396118164062, -21.779178619384766, 0.1382764, 0.07317099, -0.17458439
750, 3564099344, -126.80409240722656, 68.40652465820312, -21.996549606323242, -0.018673949, 0.059818547, -0.2033844
753, 3564149345, -126.82600402832031, 68.41304016113281, -22.108957290649414, 0.041426003, 0.070967376, -0.17774773
756, 3564199346, -126.85681915283203, 68.40921783447266, -22.2490234375, -0.024314404, 0.120686844, -0.13141727
759, 3564249347, -126.8828125, 68.43771362304688, -22.20344352722168, 0.0972269, -0.061333742, -0.1419878
763, 3564316015, -126.77802276611328, 68.44459533691406, -22.263063430786133, 0.048932016, -0.033222742, -0.1151638
769, 3564416017, -126.52618408203125, 68.39613342285156, -22.47059440612793, 0.018631145, 0.078889795, -0.18647385
772, 3564466018, -126.3857650756836, 68.39006805419922, -22.420454025268555, -0.07028779, 0.04596544, -0.16887951
775, 3564516019, -126.34056854248047, 68.32896423339844, -22.4683780670166, 0.2724337, -0.015667588, -0.2094307
778, 3564566020, -126.22985076904297, 68.13275909423828, -22.555747985839844, -0.0018166015, 0.12317553, -0.18222332
781, 3564616021, -126.1427230834961, 67.75614166259766, -22.424043655395508, 0.2034197, -0.010018521, -0.36977768
785, 3564682689, -125.87821960449219, 66.70231628417969, -22.476089477539062, 0.61409694, 0.009992817, -0.029889107
788, 3564732690, -124.2479476928711, 65.80583190917969, -21.22857666015625, -0.11202693, 0.8103002, 0.37430286
791, 3564782691, -120.53038024902344, 65.31852722167969, -18.04016876220703, 0.0044975276, 1.4017526, 0.6059427
794, 3564832692, -114.12002563476562, 64.91645812988281, -12.971665382385254, 0.070916414, 1.423189, 0.1963892
797, 3564882693, -106.08782196044922, 64.08541107177734, -6.4109110832214355, -0.12882102, 1.0905572, 0.5955448
804, 3564999362, -86.85487365722656, 61.01847839355469, 11.73779582977295, -0.55941135, 0.9599647, 0.2620659
807, 3565049363, -77.95500946044922, 59.50991439819336, 19.88323402404785, -0.69790554, 0.82314235, 0.083210945
810, 3565099364, -69.4271011352539, 58.1290283203125, 27.441593170166016, -1.3647313, 0.2565578, -0.2451868
813, 3565149365, -62.47832107543945, 57.077213287353516, 34.674381256103516, -1.53507, -0.34235793, -0.66958904
816, 3565199366, -56.78587341308594, 56.045921325683594, 42.08977127075195, -0.91893643, -0.37747025, -0.44686317
819, 3565249367, -52.195186614990234, 55.471473693847656, 48.86867141723633, -0.61758393, -1.0694469, -0.78078747
822, 3565299368, -48.77046203613281, 55.06797790527344, 55.17446517944336, -0.592232, -1.0866549, -0.86137676
826, 3565366036, -46.880523681640625, 55.167476654052734, 63.165557861328125, -0.49526995, -1.3373623, -0.84145164
829, 3565416037, -46.923702239990234, 55.729312896728516, 69.05326843261719, 0.24791582, -1.3067622, -0.96059036
832, 3565466038, -47.8120002746582, 56.635597229003906, 74.1187744140625, 1.1231086, -1.2525625, -0.8065481
838, 3565566040, -52.950286865234375, 57.993751525878906, 80.83714294433594, 0.32717073, -1.4799592, -0.8399811
841, 3565616041, -55.418251037597656, 59.370601654052734, 82.59127044677734, 3.6435015, -0.015154849, 1.0784779
844, 3565666042, -53.542972564697266, 59.993656158447266, 81.392822265625, 4.69337, 2.5927284, 1.4441032
848, 3565732710, -46.98479461669922, 60.64946365356445, 75.29629516601562, -1.938955, -2.2789392, -0.20013809
851, 3565782711, -49.8917236328125, 59.745365142822266, 72.51956939697266, -2.1852977, -0.9514732, -0.6985636
854, 3565832712, -56.4488410949707, 58.358421325683594, 71.49644470214844, 0.40744478, 0.7929556, 0.8542948
857, 3565882713, -57.91314697265625, 56.84030532836914, 70.97721862792969, 1.490695, 2.075519, 1.0989914
860, 3565932714, -55.070804595947266, 55.45539855957031, 69.39917755126953, -0.16514863, 0.7519711, 0.5167122
863, 3565982715, -53.05663299560547, 53.61553192138672, 68.43285369873047, -1.8199599, -0.21056195, -0.33754158
866, 3566032716, -54.67347717285156, 51.34555435180664, 68.51274871826172, -0.9868527, 0.7239732, -0.29136467
870, 3566099384, -57.96390914916992, 48.63032531738281, 69.32264709472656, 0.011048385, 0.8166086, 0.3031397
873, 3566149385, -57.0405158996582, 47.014488220214844, 70.11214447021484, -0.47526285, 1.049864, 0.23959064
876, 3566199386, -54.83917999267578, 45.93321228027344, 71.12618255615234, -0.8476938, 0.17685686, -0.55477524
879, 3566249387, -53.725791931152344, 44.85506820678711, 72.5660629272461, -0.64573485, -0.07360684, -0.89587116
882, 3566299388, -53.74272155761719, 44.05675506591797, 73.97879028320312, 0.0018059288, -0.25175673, -0.93387794
885, 3566349389, -53.455665588378906, 43.58183670043945, 75.24815368652344, 0.09158619, 0.17929383, -0.4754305
889, 3566416057, -51.625831604003906, 43.835567474365234, 76.6493148803711, -0.114275165, 0.11077615, -0.5677042
892, 3566466058, -50.45039367675781, 44.13401794433594, 77.65535736083984, -0.8647393, 0.8005331, -0.0901556
895, 3566516059, -49.93772506713867, 44.527286529541016, 78.89678955078125, -0.5776617, 0.7189916, 0.13012505
901, 3566616061, -48.44666290283203, 44.66114807128906, 82.15861511230469, -0.72035253, 0.8317373, 0.6672182
904, 3566666062, -47.1258659362793, 44.09025192260742, 84.29688262939453, -1.2466594, 0.7034891, 1.7101011
907, 3566716063, -44.522037506103516, 42.22853088378906, 88.0046615600586, -0.63257045, -0.8402943, 0.39638615
911, 3566782731, -42.991539001464844, 41.33405303955078, 88.60767364501953, -0.5904359, -2.758781, 2.8386526
914, 3566832732, -48.484249114990234, 40.90785598754883, 91.15531158447266, 4.0224266, -0.37021747, 1.5027618
917, 3566882733, -47.2901725769043, 40.795772552490234, 90.86309051513672, 0.34432036, 0.22980171, -0.7090883
920, 3566932734, -42.279972076416016, 41.53518295288086, 90.47119140625, -0.8915286, 0.0021130915, -0.92714214
923, 3566982735, -41.946468353271484, 41.56637191772461, 90.19367218017578, -1.1751683, -0.47518095, -1.4876013
926, 3567032736, -44.67463684082031, 40.952030181884766, 90.20756530761719, 0.79580176, 0.05665785, -0.28164196
929, 3567082737, -46.34797668457031, 41.203651428222656, 89.22975158691406, 1.0495567, -0.45873955, 0.22105503
939, 3567249407, -52.148338317871094, 44.971946716308594, 81.89278411865234, 0.20670794, -1.1321226, -1.5083122
942, 3567299408, -57.2944450378418, 47.51475524902344, 78.16522216796875, 1.1864135, -0.8467283, -1.0234327
945, 3567349409, -62.826148986816406, 50.77945327758789, 72.68086242675781, 0.4933096, -1.0311319, -0.20469475
952, 3567466078, -76.54530334472656, 58.82044219970703, 53.732906341552734, -0.9717304, -0.4625536, 0.6901922
955, 3567516079, -84.85687255859375, 61.51848220825195, 43.78457260131836, -0.5913158, 0.21986544, 0.28295135
958, 3567566080, -93.36396026611328, 63.119102478027344, 33.45033264160156, 0.042138435, 0.7853877, 0.8961687
961, 3567616081, -101.28091430664062, 64.17162322998047, 22.775054931640625, -0.7993676, 0.6239617, 0.23970604
964, 3567666082, -108.17290496826172, 64.5593032836914, 12.779727935791016, -0.5136367, 0.9541346, 0.6160517
967, 3567716083, -113.8111801147461, 64.57715606689453, 3.7333409786224365, -0.4585044, 1.1850265, -0.32285213
974, 3567832752, -120.11273193359375, 63.44325637817383, -9.766438484191895, 0.0851961, 0.88070947, 0.090120316
980, 3567932754, -119.72480010986328, 62.471923828125, -12.199018478393555, -0.4259223, 0.42894882, -0.009283066
983, 3567982755, -118.68611907958984, 62.243629455566406, -12.131704330444336, -0.5869038, 0.64650005, -0.123895645
986, 3568032756, -117.9279556274414, 62.229042053222656, -11.839925765991211, -0.28073585, 0.1429019, -0.2480545
989, 3568082757, -117.03157806396484, 62.42618179321289, -11.319129943847656, -0.30193448, 0.2420024, -0.4224596
992, 3568132758, -116.21870422363281, 62.77589416503906, -10.649709701538086, -0.19773163, 0.040275022, -0.1866436
996, 3568199426, -115.08197784423828, 63.49773025512695, -9.489469528198242, 0.0053054155, 0.16315015, -0.03386402
999, 3568249427, -114.40589904785156, 64.13228607177734, -8.479741096496582, -0.0039043243, -0.022309275, 0.011397362
1002, 3568299428, -113.98318481445312, 64.69976043701172, -7.4738450050354, 0.45075032, 0.069023706, -0.026463509
1005, 3568349429, -113.48918151855469, 65.13682556152344, -6.496337413787842, 0.1963121, 0.13617304, -0.021399498
1008, 3568399430, -113.10941314697266, 65.44536590576172, -5.54776668548584, 0.057879128, 0.16876636, -0.09041023
1015, 3568516099, -113.68537902832031, 65.81044006347656, -4.470846176147461, 0.08288576, 0.17868364, -0.31796074
1018, 3568566100, -113.9899673461914, 65.86730194091797, -4.292206764221191, -0.16784315, 0.040451597, -0.20238304
1024, 3568666102, -114.05068969726562, 65.92156982421875, -2.8567330837249756, 0.091661096, 0.25620216, -0.047358513
1027, 3568716103, -113.57659912109375, 65.84741973876953, -1.9452089071273804, 0.014144459, 0.29558313, -0.08464241
1030, 3568766104, -112.6061019897461, 65.81266784667969, -0.5132606625556946, -0.020059282, 0.39268902, -0.11453724
1033, 3568816105, -111.50752258300781, 65.76750183105469, 1.1516872644424438, 0.1456748, 0.12660131, -0.11157894
1037, 3568882773, -109.10853576660156, 65.81868743896484, 3.453566551208496, -0.01102053, 0.132935, -0.21646309
1040, 3568932774, -106.8526611328125, 65.94232177734375, 5.500486373901367, -0.2198907, 0.11059064, -0.079888344
1043, 3568982775, -104.28323364257812, 66.10249328613281, 7.984830379486084, 0.055988766, -0.026560938, -0.27972412
1046, 3569032776, -101.9732894897461, 66.11675262451172, 10.30748176574707, 0.21223316, -0.08353171, -0.039385796
1049, 3569082777, -99.62569427490234, 66.02544403076172, 12.631972312927246, -0.0663791, -0.28226578, -0.21846867
1052, 3569132778, -97.83873748779297, 66.00190734863281, 14.611422538757324, 0.039216466, -0.20697278, -0.13580227
1055, 3569182779, -96.21820068359375, 66.02989196777344, 16.359832763671875, 0.23529778, -0.10277774, -0.34168625
1059, 3569249447, -94.82476806640625, 66.1187973022461, 17.71036148071289, 0.10309982, -0.015183906, -0.17307186
1062, 3569299448, -94.55335998535156, 65.99971008300781, 18.346588134765625, 0.21952817, 0.021210933, -0.4616022
1065, 3569349449, -94.94740295410156, 65.61205291748047, 18.626697540283203, 0.25106674, -0.0766189, -0.29493523
1068, 3569399450, -93.14582824707031, 64.7574234008789, 20.341110229492188, 1.238403, 0.28833887, 1.0417576
1071, 3569449451, -86.67774963378906, 63.30742645263672, 24.989418029785156, 1.1846844, 1.3526436, 2.0482483
1074, 3569499452, -77.46580505371094, 60.44300842285156, 30.256744384765625, 1.1654569, 1.5794125, 2.06639
1081, 3569616121, -58.794734954833984, 46.4665412902832, 40.29110336303711, 0.549167, -0.075084224, 2.3254433
1084, 3569666122, -51.925323486328125, 39.199092864990234, 42.45024108886719, -0.35240382, -0.4893472, 1.6646252
1087, 3569716123, -45.217411041259766, 32.443153381347656, 43.567955017089844, -0.6814532, -1.6739851, 0.42973995
1090, 3569766124, -38.97260665893555, 26.58641242980957, 43.89103317260742, -0.7867053, -1.443617, -1.6127081
1093, 3569816125, -34.54673385620117, 22.077777862548828, 43.557098388671875, -0.51270294, -1.1390176, -2.2646847
1096, 3569866126, -31.64286994934082, 19.10904884338379, 42.65776443481445, -0.22328459, -0.49266478, -2.7299414
1100, 3569932794, -28.971832275390625, 16.95256996154785, 41.12861251831055, -0.18858679, -0.106360875, -2.0878978
1103, 3569982795, -27.6271915435791, 16.29768180847168, 40.174156188964844, -0.42648622, 0.20203309, -1.1990452
1106, 3570032796, -27.1669864654541, 16.04796028137207, 39.562564849853516, -0.10098899, 0.3189227, -1.0274763
1109, 3570082797, -27.31169891357422, 16.02351188659668, 39.22309112548828, -0.42827502, 0.42180604, -0.12002468
1118, 3570232800, -28.196062088012695, 15.37185287475586, 38.907814025878906, 0.13050963, 0.07850692, 0.2891407
1122, 3570299468, -28.593029022216797, 14.833608627319336, 38.464725494384766, 0.37837628, 0.09288528, 0.2557211
1125, 3570349469, -28.690673828125, 14.286506652832031, 37.91679000854492, 0.077074416, 0.01126997, 0.31824398
1128, 3570399470, -28.796510696411133, 13.778816223144531, 37.218196868896484, 0.015597461, 0.2156035, -0.11741543
1131, 3570449471, -28.89409065246582, 13.49461555480957, 36.56582260131836, -0.19658725, 0.2754073, -0.2999649
1134, 3570499472, -29.090900421142578, 13.401754379272461, 36.12739944458008, -0.09939758, 0.27137646, -0.04502964
1140, 3570599474, -28.874441146850586, 13.562570571899414, 35.76554489135742, 0.17365098, 0.16473463, -0.20197582
1144, 3570666142, -28.612598419189453, 13.918502807617188, 35.6110954284668, 0.03368058, 0.31206834, -0.26008415
1147, 3570716143, -28.565452575683594, 14.303874015808105, 35.64118576049805, 0.12310062, 0.18233517, 0.045743942
1150, 3570766144, -28.915681838989258, 14.503579139709473, 35.75779724121094, 0.024179352, 0.2593423, 0.23688316
1156, 3570866146, -30.178791046142578, 14.09467601776123, 36.46796798706055, 0.3304492, 0.0359496, 0.20474339
1159, 3570916147, -30.39945411682129, 13.795083045959473, 36.74946975708008, 0.2737792, -0.10753435, 0.29380608
1163, 3570982815, -30.409019470214844, 13.342269897460938, 36.822574615478516, 0.45753312, -0.219365, 0.3873272
1166, 3571032816, -30.179956436157227, 13.019457817077637, 36.427032470703125, 0.35253397, -0.19256736, 0.35944176
1169, 3571082817, -29.24704360961914, 12.613998413085938, 35.769832611083984, 0.25080317, -0.17109157, 0.998415
1172, 3571132818, -27.444889068603516, 11.756084442138672, 35.18260955810547, 0.2880212, 0.20668802, 1.6552982
1175, 3571182819, -24.933879852294922, 10.51327896118164, 35.139801025390625, -0.79373163, -0.52857304, 1.0851336
1178, 3571232820, -22.49065589904785, 8.727858543395996, 35.63962173461914, -0.2440477, 0.38908052, -0.45512295
1181, 3571282821, -21.504194259643555, 6.752417087554932, 35.75386047363281, 0.35020941, 0.46908072, -1.3031797
1185, 3571349489, -21.778263092041016, 4.907319068908691, 35.171417236328125, 0.027739942, 0.25730118, -0.99415874
1194, 3571499492, -23.885955810546875, 3.750485420227051, 33.74443817138672, 0.31040967, 0.1379845, 0.31555462
1197, 3571549493, -23.697355270385742, 3.366523504257202, 33.356563568115234, -0.06473528, 0.06730601, 0.13551712
1200, 3571599494, -23.568401336669922, 2.8350067138671875, 33.1318359375, 0.09303403, 0.0018062082, -0.22595024
1207, 3571716163, -24.559226989746094, 2.0755231380462646, 31.985454559326172, 0.35723516, -0.17532155, 0.23496151
1213, 3571816165, -26.19951820373535, 0.7322043180465698, 29.85179901123047, 0.36126527, -0.09165998, 0.25437737
1216, 3571866166, -26.514442443847656, 0.12447047233581543, 28.505107879638672, 0.045562, 0.22898276, -0.17656803
1219, 3571916167, -25.706605911254883, 0.4556736350059509, 27.572290420532227, -0.5142413, 1.3042917, -1.2924995
1222, 3571966168, -23.564138412475586, 2.23164963722229, 27.998390197753906, -0.78255504, 2.2798135, -1.9611578
1226, 3572032836, -18.80607032775879, 6.855951309204102, 32.03763198852539, -1.7942513, 3.1788049, -1.6838408
1229, 3572082837, -15.029670715332031, 11.163164138793945, 37.4664192199707, -3.1687489, 2.9998834, -1.9091454
1232, 3572132838, -12.322031021118164, 16.533117294311523, 45.624351501464844, -3.419329, 2.0334675, -1.6977329
1235, 3572182839, -12.09559154510498, 21.24118423461914, 54.629066467285156, -2.4924798, -0.5928922, -0.37526226
1238, 3572232840, -15.471966743469238, 23.83277130126953, 63.760528564453125, -1.0231203, -2.7155702, -0.71759033
1241, 3572282841, -24.426572799682617, 25.950897216796875, 71.15911102294922, 1.3847792, -3.7529058, 1.6237383
1244, 3572332842, -41.23218536376953, 27.96586799621582, 75.49486541748047, 5.355412, 0.93296546, 5.7456713
1248, 3572399510, -50.95255661010742, 34.18084716796875, 78.1814193725586, 4.3075714, -1.1621398, -1.9850645
1251, 3572449511, -53.15006637573242, 34.490543365478516, 80.11861419677734, 1.7545255, -3.3780005, -0.22602272
1254, 3572499512, -57.860008239746094, 35.30741500854492, 82.20588684082031, 2.827817, 0.87694305, 3.984645
1257, 3572549513, -55.46837615966797, 35.901100158691406, 82.86417388916016, 3.4550683, 1.5516504, 2.9438877
1263, 3572649515, -48.631168365478516, 35.43384552001953, 81.15252685546875, -1.4850633, -0.95366454, -0.51194763
1267, 3572716183, -55.09373092651367, 34.055213928222656, 80.451416015625, 1.4522178, 0.6363159, -0.020655632
1270, 3572766184, -55.08684158325195, 33.94721221923828, 79.2955551147461, -0.16948384, 0.19550544, -0.44046974
1273, 3572816185, -53.92903518676758, 33.84861373901367, 78.1485824584961, -0.6944961, 0.0598105, -0.031094551
1276, 3572866186, -52.620018005371094, 33.74007797241211, 77.50920867919922, -0.12873223, 0.16130953, -0.5053425
1279, 3572916187, -52.32945251464844, 33.7971076965332, 76.85816192626953, -0.07143376, -0.19429222, -0.2826891
1282, 3572966188, -54.076210021972656, 33.537757873535156, 75.74789428710938, 1.0255911, -0.04069323, -0.047700882
1285, 3573016189, -56.01426696777344, 33.18708419799805, 74.15040588378906, 1.0084698, 0.17822699, 0.2324915
1289, 3573082857, -56.216670989990234, 33.09099578857422, 71.07223510742188, 0.3801128, -0.51760596, 0.3831644
1292, 3573132858, -55.92612838745117, 32.84548568725586, 68.5610580444336, 0.7742129, -0.30075145, -0.27971554
1298, 3573232860, -56.76931381225586, 33.830657958984375, 62.02519989013672, 0.22277568, -0.63116705, -1.3410168
1301, 3573282861, -60.45552062988281, 35.422237396240234, 57.49759292602539, -0.4406204, -0.5469472, -1.2907276
1304, 3573332862, -63.854156494140625, 37.65843200683594, 52.91433334350586, -0.25691664, -0.6615541, -0.43602085
1307, 3573382863, -66.9897689819336, 39.92813491821289, 47.90845489501953, -0.67792326, 0.28831026, 0.59577465
1311, 3573449531, -69.79983520507812, 42.54277420043945, 42.27392578125, -0.54606855, 1.0188338, 0.5584898
1314, 3573499532, -71.98786926269531, 43.911842346191406, 38.832462310791016, -0.845838, -0.05430605, 0.0097332
1317, 3573549533, -76.4107666015625, 45.68570327758789, 34.689002990722656, -1.5064992, -0.885346, -1.2467413
1320, 3573599534, -85.23847198486328, 48.19059753417969, 28.210676193237305, -0.91060245, 1.1837068, -0.88823223
1326, 3573699536, -101.00395202636719, 52.079219818115234, 13.862457275390625, -0.0069575114, 1.1432152, 0.43253708
1329, 3573749537, -104.46757507324219, 53.21207809448242, 9.977066993713379, -0.24088606, 1.2797898, 0.8581009
1336, 3573866206, -103.75654602050781, 54.513038635253906, 12.461602210998535, 1.0420685, 1.3706194, 1.6246586
1339, 3573916207, -96.6455078125, 53.50235366821289, 16.64032745361328, 1.3519083, 1.1192492, 2.1940107
1342, 3573966208, -86.38858795166016, 50.88997268676758, 22.150236129760742, 0.8320157, 1.1878082, 2.6161118
1345, 3574016209, -75.60623168945312, 46.35968780517578, 27.19997787475586, 0.74207675, -0.07192781, 2.7007408
1348, 3574066210, -64.82855987548828, 40.37421798706055, 31.673240661621094, 0.085226275, -0.17152116, 2.775754
1352, 3574132878, -51.336082458496094, 31.61823081970215, 35.1672248840332, -0.41363275, -0.6307375, 0.9941826
1358, 3574232880, -36.531333923339844, 20.345943450927734, 36.31665802001953, -1.0544691, -0.5885206, -2.736435
1361, 3574282881, -32.4937858581543, 16.899736404418945, 36.19475555419922, -0.6337352, -0.3274684, -3.005571
1364, 3574332882, -30.11656951904297, 14.967947959899902, 35.949676513671875, -0.68748313, 0.1820902, -2.4859638
1367, 3574382883, -28.573532104492188, 13.951089859008789, 36.103485107421875, 0.02376208, 0.41714916, -1.5041332
1374, 3574499552, -27.45171356201172, 12.062141418457031, 37.452144622802734, 0.1802543, 0.16177063, -0.24425983
1377, 3574549553, -27.293739318847656, 11.5490083694458, 37.94090270996094, 0.32128724, -0.26550144, 0.1020689
1380, 3574599554, -27.15757942199707, 11.08228874206543, 38.18075180053711, 0.5101973, 0.09308443, -0.161623
1383, 3574649555, -27.102272033691406, 10.877628326416016, 38.382301330566406, -0.06530529, 0.015991615, -0.37832928
1386, 3574699556, -26.62665367126465, 11.011526107788086, 38.745765686035156, 0.013406796, 0.44531658, -0.8554106
1389, 3574749557, -25.36700439453125, 12.191189765930176, 39.30293655395508, -0.8046966, 1.3112043, -1.458786
1393, 3574816225, -22.675350189208984, 15.705156326293945, 41.65293884277344, -2.781166, 2.1586132, -2.0411077
1396, 3574866226, -21.152606964111328, 19.704702377319336, 46.67799377441406, -2.8860357, 1.6552511, -0.7492571
1399, 3574916227, -21.175037384033203, 22.208797454833984, 53.178592681884766, -2.0768998, 0.8802335, -1.5262089
1402, 3574966228, -23.49226951599121, 25.511934280395508, 62.11121368408203, -0.15686642, -2.057997, -3.8384829
1405, 3575016229, -33.8043212890625, 28.722776412963867, 66.02516174316406, 2.415832, -2.3824384, 5.9754047
1408, 3575066230, -51.614376068115234, 33.547637939453125, 66.05390167236328, -2.1646895, -0.036189653, -3.1500587
1411, 3575116231, -60.45913314819336, 37.59840774536133, 68.71690368652344, 2.9144537, -1.0290425, 4.4285917
1415, 3575182899, -58.7202033996582, 40.58841323852539, 72.32755279541016, 2.3843915, -0.85510445, 0.15837765
1418, 3575232900, -55.45081329345703, 41.77280044555664, 73.81829833984375, 0.99482244, -0.6449245, 2.6069355
1421, 3575282901, -53.75011444091797, 42.339447021484375, 75.51754760742188, -0.254504, -0.15568861, 1.2340536
1424, 3575332902, -57.253868103027344, 41.75214767456055, 76.23283386230469, -0.26926672, -0.76517224, 0.13597488
1427, 3575382903, -60.482330322265625, 40.78163146972656, 76.76985168457031, 1.9236736, 1.2470087, 0.30785084
1430, 3575432904, -58.974891662597656, 40.41789245605469, 76.2736587524414, 0.72381496, 0.037589964, -0.2418499
1437, 3575549573, -57.22712707519531, 39.2027473449707, 74.2099380493164, 0.073566675, -0.029071212, -0.04236126
1440, 3575599574, -58.4013557434082, 38.468807220458984, 73.34319305419922, 0.6104507, 0.35954517, 0.7895746
1443, 3575649575, -58.7391357421875, 37.49398422241211, 72.2497329711914, 0.5944778, -0.05419966, 0.21299553
1449, 3575749577, -58.707130432128906, 35.02388381958008, 68.24380493164062, 1.4138848, -0.19483624, -0.15270233
1452, 3575799578, -59.13121032714844, 33.940345764160156, 64.68876647949219, 1.1312354, -0.77237046, -0.16425419
1456, 3575866246, -58.866512298583984, 32.83800506591797, 58.698890686035156, 1.1599629, -1.3250029, 1.1217375
1459, 3575916247, -55.46280288696289, 31.536584854125977, 54.41972351074219, 0.083881184, -0.43183732, 2.044734
1462, 3575966248, -49.21039962768555, 29.075780868530273, 50.90732192993164, -0.39407, -0.1859449, 1.4566231
1465, 3576016249, -42.9695930480957, 25.59666633605957, 47.74657440185547, -2.3811953, 1.6429574, 2.982952
1468, 3576066250, -37.61894989013672, 23.828153610229492, 44.078208923339844, -1.8771863, 1.6625307, -2.2499242
1474, 3576166252, -21.150890350341797, 28.960927963256836, 46.68095016479492, -4.0343237, 2.931523, -6.211345
1478, 3576232920, -18.206405639648438, 34.770782470703125, 54.16652297973633, -1.8814042, 1.0341898, -3.7165437
1481, 3576282921, -23.766094207763672, 38.570072174072266, 59.09730911254883, -1.3419917, -2.1689506, -1.7732334
1484, 3576332922, -34.98217010498047, 41.223636627197266, 62.517704010009766, 2.1284544, -2.4015663, 4.5519047
1487, 3576382923, -56.5399284362793, 43.470882415771484, 60.23139572143555, 0.54041755, 4.082622, 1.8992414
1490, 3576432924, -66.17682647705078, 47.47133255004883, 59.057594299316406, 1.1747004, -4.1157136, -3.7920103
1493, 3576482925, -71.78028869628906, 48.55989456176758, 61.47417449951172, 0.0023686367, -4.3609123, 3.027875
1496, 3576532926, -73.09107208251953, 51.31716537475586, 64.78861236572266, 4.9622216, 4.3814764, 5.6414566
1500, 3576599594, -57.731937408447266, 53.26765060424805, 64.41449737548828, 0.3812609, -0.8809978, -0.40717888
1506, 3576699596, -64.05780792236328, 51.00865173339844, 64.525634765625, 2.3511941, -0.90897936, 0.47923946
1512, 3576799598, -66.64744567871094, 48.72064208984375, 61.57725524902344, 1.5237706, -0.54864895, 0.6136818
1515, 3576849599, -63.69807052612305, 47.16065979003906, 57.35846710205078, 0.7674203, -0.5107924, 0.84477425
1518, 3576899600, -60.64230728149414, 44.95317840576172, 53.40854263305664, 0.60107714, 0.1372231, 2.018549
1522, 3576966268, -55.77245330810547, 39.446495056152344, 50.009544372558594, -0.88270277, 0.020737533, 2.623972
1525, 3577016269, -50.86857986450195, 33.556602478027344, 48.35357666015625, -0.5306478, 0.23342933, 2.9723387
1528, 3577066270, -42.563663482666016, 27.750274658203125, 46.9515266418457, -1.7817063, 0.24737957, 0.59430504
1531, 3577116271, -33.86100387573242, 24.313278198242188, 45.56158447265625, -1.5117873, 0.6011088, -2.716916
1534, 3577166272, -25.423534393310547, 23.17699432373047, 46.24990463256836, -2.587899, 0.9777469, -5.2136407
1537, 3577216273, -21.242420196533203, 23.556224822998047, 49.0526008605957, -3.4230268, 2.3051016, -6.83143
1541, 3577282941, -29.580778121948242, 26.738670349121094, 54.43376541137695, -3.146994, 0.36637712, -5.8277464
1547, 3577382943, -47.38703918457031, 27.503480911254883, 63.97468185424805, 3.6498642, 2.2317736, 1.8305826
1550, 3577432944, -45.23137283325195, 28.288246154785156, 67.0890121459961, -0.7030722, -2.2910395, -3.5990329
1553, 3577482945, -50.95957946777344, 29.283958435058594, 69.15766906738281, 1.0476049, -2.916472, -0.5419407
1559, 3577582947, -54.57480239868164, 29.9254093170166, 71.94300079345703, 2.980204, 0.17021249, 2.2607803
1563, 3577649615, -46.16700744628906, 30.682098388671875, 71.5604248046875, -2.943136, -0.7090336, -2.4326067
1566, 3577699616, -50.8065299987793, 30.173330307006836, 71.3877182006836, 0.90055597, -0.9313897, -0.45133114
1569, 3577749617, -54.510101318359375, 29.96303939819336, 70.488525390625, 2.8357375, 0.053533588, 0.29549694
1572, 3577799618, -54.409278869628906, 30.07770538330078, 67.90509033203125, 1.3280861, -0.42075846, 0.3207016
1575, 3577849619, -53.10588455200195, 29.937358856201172, 64.39317321777344, 1.0302405, -0.25769502, 0.3595581
1578, 3577899620, -51.055641174316406, 30.0824031829834, 60.34814453125, -0.45611912, -0.44758403, 0.5145254
1582, 3577966288, -48.98235321044922, 30.063190460205078, 55.78714370727539, -1.9466054, 0.013979394, -0.3201418
1585, 3578016289, -45.65840148925781, 30.80313491821289, 54.67915725708008, -2.8955147, 0.61176324, -1.8934674
1588, 3578066290, -39.566436767578125, 33.96022033691406, 54.68526840209961, -3.1244013, 1.7940526, -1.8179264
1591, 3578116291, -31.810964584350586, 40.04201126098633, 57.388179779052734, -2.0449164, -0.45231536, -1.401721
1594, 3578166292, -31.16394805908203, 46.67967987060547, 59.691627502441406, -1.2093508, 1.7790197, -3.2445202
1597, 3578216293, -44.02912902832031, 47.1646614074707, 61.29624938964844, -2.286191, 1.133662, 4.708685
1600, 3578266294, -61.454524993896484, 47.58997344970703, 63.14564514160156, -0.015213298, 1.1710695, -3.729529
1604, 3578332962, -62.8258171081543, 48.83719253540039, 67.93740844726562, 2.835812, -3.204622, -1.5850515
1607, 3578382963, -61.150814056396484, 49.4882698059082, 71.37049865722656, 1.376725, -1.7758667, 1.5651541
1613, 3578482965, -51.79536056518555, 51.4035758972168, 75.34135437011719, 0.5763488, 0.5042888, -0.68221855
1616, 3578532966, -52.448394775390625, 50.78596115112305, 74.55179595947266, -1.1542484, -1.0306417, -0.44538784
1619, 3578582967, -58.05157470703125, 49.79789352416992, 74.0162124633789, 1.446254, -0.5313623, -0.2085762
1622, 3578632968, -59.00618362426758, 49.47720718383789, 72.92950439453125, 1.9822278, 0.7167417, 0.30675125
1626, 3578699636, -56.67921447753906, 49.00292205810547, 69.75131225585938, 0.105962075, -0.4176259, -0.38721657
1629, 3578749637, -57.261207580566406, 48.500343322753906, 66.8746566772461, 0.5373726, -0.44033724, -0.4138136
1632, 3578799638, -59.409088134765625, 47.84986877441406, 63.37183380126953, 0.53409034, -0.44483906, 0.28180122
1635, 3578849639, -61.068641662597656, 46.839019775390625, 59.45151901245117, 0.913203, -0.16630816, 0.87882805
1638, 3578899640, -59.22755432128906, 45.55575942993164, 56.00657653808594, 0.22221407, 0.5081558, 1.3084469
1645, 3579016309, -45.71491241455078, 44.28821563720703, 52.27114486694336, -4.110235, 1.4446857, -2.3328152
1651, 3579116311, -36.07231140136719, 47.5847282409668, 60.92110824584961, -0.91727084, 0.93574566, -1.1166201
1654, 3579166312, -35.21632766723633, 48.97334289550781, 67.10578155517578, 0.50330055, -0.0027693256, 2.990512
1657, 3579216313, -44.99673080444336, 47.73006057739258, 70.47688293457031, -1.8703928, 1.6082338, -2.9102197
1660, 3579266314, -54.46306228637695, 47.06627655029297, 73.8330307006836, 3.1084259, -5.240415, -5.736241
1663, 3579316315, -61.43128967285156, 47.19942855834961, 75.49598693847656, 4.0623775, -1.6852175, 1.8937473
1667, 3579382983, -59.19475555419922, 48.591827392578125, 76.46383666992188, 3.5387473, 2.3403378, 2.2435617
1670, 3579432984, -49.915767669677734, 49.35798263549805, 75.39822387695312, -1.1826638, -1.2740666, -0.9267111
1673, 3579482985, -50.96445846557617, 48.48279571533203, 73.63117218017578, -1.7935907, -1.2546303, -1.7780352
1679, 3579582987, -62.13551712036133, 46.895164489746094, 69.51432800292969, 2.6422377, 0.4305204, 0.4815607
1682, 3579632988, -59.132991790771484, 46.77008819580078, 64.86589813232422, 0.37454256, 0.08905449, 0.96676826
1692, 3579799658, -46.951663970947266, 42.03327941894531, 58.019710540771484, -0.5552106, 1.119133, 0.722147
1698, 3579899660, -29.68141746520996, 42.776554107666016, 60.17355728149414, -3.0478137, 1.1770195, -0.06548214
1701, 3579949661, -22.732519149780273, 43.97105026245117, 66.10731506347656, -1.8800813, -0.62173826, -3.5424304
1704, 3579999662, -29.112964630126953, 40.76163864135742, 70.41326141357422, 0.7866, -0.44666046, -0.029434204
1707, 3580049663, -50.53209686279297, 37.19255065917969, 69.75331115722656, -0.1475813, 0.9027249, -0.32868767
1711, 3580116331, -64.56626892089844, 38.27935791015625, 69.95049285888672, 4.1773844, -1.9470097, -1.3825827
1714, 3580166332, -65.74565887451172, 39.28683853149414, 70.11229705810547, 2.0637085, -0.8584426, 3.0144138
1717, 3580216333, -59.00937271118164, 40.497474670410156, 70.51477813720703, 3.6048355, 1.6256658, 3.5069065
1723, 3580316335, -49.798912048339844, 40.10970687866211, 69.08428192138672, -2.1355422, -1.1394112, -1.6673317
1730, 3580433004, -51.18169021606445, 37.64689636230469, 68.04364776611328, 1.3343642, 0.6532154, 0.9365282
1736, 3580533006, -35.245826721191406, 37.67018127441406, 65.34661102294922, -1.5548052, 0.71100676, -0.002588272
1739, 3580583007, -33.7678337097168, 36.64247131347656, 64.57022857666016, -0.3956758, 0.41947705, -0.01888752
1742, 3580633008, -33.23966598510742, 35.36838912963867, 63.80717086791992, 0.8107476, 0.103393294, 0.15735531
1745, 3580683009, -30.663475036621094, 34.89775085449219, 62.99337387084961, -0.8788243, 0.40628308, 0.17511463
1748, 3580733010, -27.996736526489258, 34.507545471191406, 63.23211669921875, -1.609711, 0.8214481, -0.9366398
1752, 3580799678, -27.898622512817383, 33.857112884521484, 65.25208282470703, -1.6918119, 0.67110276, -0.84030724
1755, 3580849679, -30.890708923339844, 32.668739318847656, 68.97093200683594, -0.9090289, -0.5143833, -1.0897789
1758, 3580899680, -36.296913146972656, 29.992183685302734, 73.4891586303711, -0.95842814, -0.39758372, 1.8044481
1761, 3580949681, -46.704105377197266, 26.708906173706055, 76.37577819824219, 0.46571463, 3.0193405, -1.6754179
1764, 3580999682, -48.960411071777344, 28.122108459472656, 79.03050231933594, 3.2762065, -1.2341557, -3.9771523
1767, 3581049683, -50.54731369018555, 28.14622688293457, 79.0886459350586, 2.5242891, -2.0222926, 0.15447521
1770, 3581099684, -50.21409606933594, 28.840484619140625, 79.77638244628906, 0.9603697, 0.7867929, 1.9706354
1774, 3581166352, -45.451438903808594, 29.5667724609375, 79.97815704345703, -0.39677662, 0.11390855, 0.36459827
1777, 3581216353, -45.75589370727539, 29.116884231567383, 79.32715606689453, -0.08803594, -0.42188585, -0.53750515
1780, 3581266354, -49.09515380859375, 28.509878158569336, 78.18765258789062, 1.5510639, -0.64884025, -0.2290268
1783, 3581316355, -49.95173645019531, 28.569683074951172, 76.44068145751953, 0.6042236, 0.35707647, -0.6137247
1789, 3581416357, -48.0115966796875, 30.486026763916016, 70.54898071289062, -0.87164396, -0.6802514, -0.46958828
1793, 3581483025, -44.557334899902344, 33.77961730957031, 68.24905395507812, -1.5845991, -0.15166584, -1.7280579
1796, 3581533026, -42.22966003417969, 37.48469543457031, 67.9292221069336, -1.7045779, 0.21935472, -0.19815063
1802, 3581633028, -42.174339294433594, 43.71231460571289, 70.29618835449219, -2.8771772, 0.31205738, 0.46046066
1805, 3581683029, -50.325645446777344, 45.72025680541992, 72.436279296875, -1.9978087, 2.7319806, 1.7480631
1808, 3581733030, -59.93510818481445, 46.229183197021484, 74.93651580810547, 0.66442734, 1.598403, 3.4069042
1811, 3581783031, -60.64887619018555, 46.16680145263672, 78.48616027832031, 4.7273574, -1.8509187, -1.8529992
1815, 3581849699, -57.399208068847656, 47.157344818115234, 78.60418701171875, -0.47184652, -2.0623593, 2.1995573
1818, 3581899700, -56.61738586425781, 48.14796447753906, 80.29669952392578, 0.6990984, 0.909086, 0.8521004
1821, 3581949701, -56.25529098510742, 47.901058197021484, 80.35596466064453, 1.1208419, 0.6062836, -0.8150368
1824, 3581999702, -56.07552719116211, 47.59557342529297, 79.08859252929688, -0.27659494, -1.0517999, -0.3369503
1827, 3582049703, -57.54379653930664, 47.441131591796875, 78.54720306396484, 0.52998865, -0.3196727, -0.3851633
1830, 3582099704, -57.74569320678711, 47.37628936767578, 77.33047485351562, 0.86144185, 0.26396772, 0.07593918
1840, 3582266374, -61.123268127441406, 48.33534240722656, 69.24369049072266, 1.0896914, -0.7577201, -0.70118904
1843, 3582316375, -64.28128051757812, 49.289825439453125, 64.10748291015625, 0.8932804, -1.6065685, -0.61212444
1846, 3582366376, -69.66954803466797, 51.12099075317383, 57.203125, -0.19944403, -0.37732026, -0.79165936
1849, 3582416377, -77.1851577758789, 52.89169692993164, 47.946258544921875, -0.6806815, -0.15473333, 0.50285625
1852, 3582466378, -83.61392211914062, 53.39418029785156, 39.31663131713867, 0.20249738, 0.08244968, 0.61894035
1856, 3582533046, -85.35466766357422, 52.75217056274414, 31.421756744384766, 0.09749065, 2.5919244, 2.6894245
1859, 3582583047, -80.15310668945312, 51.67271041870117, 28.813003540039062, -2.1828156, 2.2384055, 1.0486097
1862, 3582633048, -72.90370178222656, 51.057159423828125, 30.23487091064453, -5.206611, 3.1180632, -1.689228
1865, 3582683049, -65.9943618774414, 51.790428161621094, 38.24424362182617, -2.838128, 2.193745, -0.26432705
1868, 3582733050, -59.68938446044922, 50.9328498840332, 48.18801498413086, -0.64743334, 1.5345418, -0.47237015
1874, 3582833052, -68.87279510498047, 48.93177795410156, 59.44227600097656, 5.5804276, -4.60781, -4.284708
1878, 3582899720, -70.30378723144531, 49.638248443603516, 62.43754577636719, 2.6021397, 0.99658346, 3.040699
1881, 3582949721, -64.87279510498047, 50.98739242553711, 63.02595520019531, 1.9863136, 1.1368642, 0.4803877
1884, 3582999722, -58.98155212402344, 51.28435134887695, 62.38892364501953, -2.5098443, -1.0974051, -1.7170944
1887, 3583049723, -61.480194091796875, 50.63645553588867, 62.937721252441406, -1.4374472, -1.3855003, -0.8313627
1890, 3583099724, -66.81573486328125, 49.953697204589844, 64.02458190917969, 2.438574, 0.2759093, 0.78336143
1893, 3583149725, -66.03965759277344, 49.851524353027344, 63.690242767333984, 1.4028184, 0.34359685, 0.6945801
1896, 3583199726, -62.9051399230957, 49.75292205810547, 62.157100677490234, -0.07786314, -0.3475745, -0.12364006
1900, 3583266394, -63.058650970458984, 48.95412063598633, 59.31046676635742, -0.055065293, 0.021654382, 0.026280403
1903, 3583316395, -66.1158218383789, 48.019962310791016, 56.560272216796875, -0.08917161, -0.048720907, -0.49996567
1909, 3583416397, -63.96548080444336, 46.72572708129883, 51.42160415649414, -1.4525408, 0.66339004, -0.20390797
1915, 3583516399, -46.97788619995117, 47.96149444580078, 55.07737731933594, -2.6226678, 2.6476572, -0.24856186
1919, 3583583067, -38.28676223754883, 48.07682418823242, 63.13386535644531, -0.5865921, 0.5480569, 0.120064735
1922, 3583633068, -37.500553131103516, 46.5563850402832, 68.9569320678711, -0.32026747, 0.20183489, 1.0861664
1925, 3583683069, -42.29230880737305, 44.383758544921875, 74.39325714111328, -0.9864818, 0.8572978, 3.279132
1928, 3583733070, -49.07504653930664, 41.18498611450195, 77.95521545410156, 0.4478601, -3.1917012, -5.2197814
1931, 3583783071, -51.344451904296875, 40.04643249511719, 80.4428939819336, 5.1378093, -3.1443717, -3.3167238
1934, 3583833072, -52.729434967041016, 39.993080139160156, 80.83891296386719, 2.0083961, -1.5106411, 1.174242
1937, 3583883073, -51.014686584472656, 40.94619369506836, 81.52184295654297, 1.5979935, 1.2694247, 1.3660002
1941, 3583949741, -46.904808044433594, 41.29141616821289, 80.56121826171875, -0.6624688, -0.3595414, -0.73604393
1944, 3583999742, -49.83522415161133, 40.835060119628906, 79.11567687988281, 0.2761066, -0.91964984, -0.49135494
1947, 3584049743, -53.70524597167969, 40.31806182861328, 77.49110412597656, 2.056206, -0.2678633, -0.5146923
1950, 3584099744, -54.732303619384766, 40.91118621826172, 74.12837982177734, 1.9355783, -0.44657353, -0.8416319
1953, 3584149745, -54.84358215332031, 41.432090759277344, 69.2162857055664, 0.3536275, -0.7103374, 0.95606995
1956, 3584199746, -54.60068893432617, 42.07045364379883, 64.43515014648438, -0.5476769, 0.46886513, 0.4173174
1959, 3584249747, -53.64807891845703, 42.969486236572266, 60.22238540649414, -1.9109086, 0.0391474, -0.14052486
1963, 3584316415, -52.7388801574707, 43.73263168334961, 57.71043395996094, -2.740549, 1.0087239, -0.4735775
1966, 3584366416, -50.76031494140625, 45.54954528808594, 57.82630920410156, -2.2661958, 0.58095753, -1.3750248
1969, 3584416417, -44.67914962768555, 48.80904006958008, 59.62571334838867, -1.8065783, 1.4584882, -0.34483433
1975, 3584516419, -37.262969970703125, 55.28141403198242, 68.54116821289062, -1.282526, -0.4705131, 1.5142784
1978, 3584566420, -46.15680694580078, 55.30656433105469, 72.60150146484375, 1.236319, 5.338441, 6.1385565
1982, 3584633088, -59.855648040771484, 54.236968994140625, 72.90892028808594, 5.117296, -4.225025, -3.7904916
1985, 3584683089, -62.521175384521484, 54.66828918457031, 71.90538024902344, 0.1835464, -3.0503752, 1.7072878
1988, 3584733090, -63.809417724609375, 55.75834274291992, 72.97241973876953, 2.3753564, 3.2018797, 2.5427427
1991, 3584783091, -57.83172607421875, 56.32448959350586, 72.96209716796875, 1.8146721, 1.0372638, 0.9052515
1994, 3584833092, -52.73723602294922, 55.6524543762207, 72.09471130371094, -2.962482, -1.4000549, -1.03473
1997, 3584883093, -58.114803314208984, 54.42295455932617, 71.64705657958984, 0.5523195, -1.6344922, -0.2077303
2000, 3584933094, -61.83048629760742, 53.360782623291016, 71.55187225341797, 2.8301215, 0.91543305, 0.31411362
2007, 3585049763, -59.17384338378906, 51.785400390625, 64.44062805175781, 0.43755114, -0.3402938, -0.45196533
2013, 3585149765, -62.10689163208008, 49.60375213623047, 56.487667083740234, -0.2450259, 0.06476466, 0.29021358
2016, 3585199766, -61.68170928955078, 48.75580596923828, 53.70515441894531, -0.78528965, 0.5348893, 0.6204815
2019, 3585249767, -57.322486877441406, 48.40199279785156, 52.616268157958984, -2.334178, 0.9656352, -0.33187008
2026, 3585366436, -45.460304260253906, 49.738609313964844, 58.0762939453125, -2.863786, 1.0781639, -1.0201521
2029, 3585416437, -43.94794464111328, 50.84275817871094, 63.27017593383789, -2.4648185, 1.28706, 0.21880913
2032, 3585466438, -46.594722747802734, 50.95463562011719, 69.40483093261719, -0.077836394, 0.11131551, 1.2261286
2035, 3585516439, -55.37689208984375, 49.54954528808594, 73.56546783447266, 0.81959337, 0.3812874, -1.586278
2038, 3585566440, -58.117122650146484, 50.547176361083984, 77.06893157958984, 5.8995, -2.7605338, -2.4993124
2041, 3585616441, -58.5923957824707, 51.08803176879883, 77.98788452148438, 2.4990814, -1.4017407, 2.3742952
2045, 3585683109, -54.90156555175781, 52.62123107910156, 79.36390686035156, 1.7651343, 1.0732263, 0.8055906
2051, 3585783111, -54.06828308105469, 51.943477630615234, 77.98164367675781, -0.32415435, -1.1354272, -0.5304899
2054, 3585833112, -58.31707763671875, 51.35538864135742, 77.0293960571289, 1.8595309, 0.071232654, 0.0403471
2057, 3585883113, -58.18650436401367, 51.377288818359375, 75.13904571533203, 1.3286538, -0.056567777, -0.3679638
2060, 3585933114, -57.386566162109375, 51.394004821777344, 71.72891235351562, -0.5067298, -0.631558, -0.22733116
2063, 3585983115, -58.35153579711914, 51.344661712646484, 68.56623077392578, 0.10593441, 0.11189729, 0.10812473
2070, 3586099784, -60.913177490234375, 50.12542724609375, 62.075923919677734, -0.5319206, 1.2456999, 0.9170265
2073, 3586149785, -59.01161193847656, 49.009239196777344, 60.84177017211914, -0.71213716, 0.9194847, 0.5420399
2076, 3586199786, -54.94240951538086, 47.585933685302734, 60.92867660522461, -1.1731406, 0.92866206, 0.7709122
2079, 3586249787, -50.60091018676758, 46.012935638427734, 61.73991775512695, -1.2096181, 0.9391489, 0.53177834
2082, 3586299788, -46.38252639770508, 44.42975997924805, 63.459869384765625, -1.007389, 1.2260984, 0.81412506
2089, 3586416457, -39.386077880859375, 37.66765213012695, 71.23284912109375, -1.6546572, 0.9755491, 2.493042
2092, 3586466458, -37.84349822998047, 32.32706069946289, 76.25361633300781, -0.5029438, -0.55378264, 0.854455
2095, 3586516459, -39.142845153808594, 26.178197860717773, 81.74820709228516, -2.393324, -1.7728373, 3.67208
2098, 3586566460, -43.1205940246582, 20.151397705078125, 85.95001220703125, 3.6945882, -1.5030044, -6.5205665
2101, 3586616461, -44.52298355102539, 17.860153198242188, 87.67642211914062, 3.6577027, -1.0957559, -6.1142406
2104, 3586666462, -44.61051559448242, 17.62347984313965, 87.3889389038086, 2.0098445, -1.5139228, -2.5221658
2111, 3586783131, -43.596195220947266, 23.81540870666504, 83.96536254882812, 0.7154196, -1.2764883, -2.3832755
2114, 3586833132, -48.55671310424805, 28.35066032409668, 80.30033111572266, 0.8194547, -1.407037, -1.9929128
2117, 3586883133, -54.944725036621094, 34.76840591430664, 75.53866577148438, 0.7737938, -1.4001207, -0.18398476
2123, 3586983135, -69.13838958740234, 47.13829040527344, 61.5296630859375, -0.25248927, 0.13112119, 1.4879866
2126, 3587033136, -77.656494140625, 52.18928909301758, 52.48769760131836, -0.6228562, 0.39994806, 1.7770681
2130, 3587099804, -88.5199203491211, 57.15869903564453, 40.217193603515625, -0.19808903, 1.5211767, 2.430995
2133, 3587149805, -96.18457794189453, 59.077293395996094, 31.91107177734375, -0.20798802, 0.87146986, 1.6660824
2139, 3587249807, -107.78504943847656, 61.104312896728516, 16.002422332763672, -0.59365076, 0.9276248, 0.5367117
2142, 3587299808, -111.02883911132812, 61.64226531982422, 10.506593704223633, -0.7382585, 0.69547933, 0.045449257
2148, 3587399810, -113.0849838256836, 62.81105041503906, 4.981547832489014, -0.509235, 1.0289947, 0.258358
2152, 3587466478, -112.20440673828125, 63.5507926940918, 5.672054767608643, -0.10584981, 0.8553557, -0.087290764
2158, 3587566480, -108.70759582519531, 64.09927368164062, 10.571274757385254, 0.039258823, -0.0105790915, -0.502964
2161, 3587616481, -106.32899475097656, 64.5683364868164, 13.249021530151367, 0.14238468, -0.094410084, -0.40873528
2167, 3587716483, -103.22535705566406, 65.77273559570312, 15.297357559204102, -0.3551652, 0.0035169763, 0.1227541
2171, 3587783151, -103.5091323852539, 66.3280258178711, 15.337051391601562, 0.12588584, 0.0998039, -0.014895439
2174, 3587833152, -103.98210144042969, 66.4813461303711, 15.932666778564453, 0.015756434, -0.19237559, -0.11978054
2177, 3587883153, -104.64957427978516, 66.59020233154297, 16.663166046142578, 0.39931914, 0.14173245, 0.34814548
2180, 3587933154, -103.61656951904297, 66.36946868896484, 18.276636123657227, -0.27977216, 1.527515, 0.54643536
2183, 3587983155, -96.890869140625, 65.83594512939453, 25.65241050720215, -0.6631463, 3.1904466, 1.7805166
2186, 3588033156, -82.80574798583984, 63.24179458618164, 39.45838928222656, -0.5888899, 3.967515, 2.8319788
2189, 3588083157, -66.6698989868164, 57.29631805419922, 54.67301940917969, -0.930622, 1.9521892, 3.475339
2193, 3588149825, -51.55937957763672, 46.12593460083008, 68.61089324951172, -0.21655321, -1.67696, 1.5297699
2196, 3588199826, -47.90682601928711, 37.307579040527344, 74.23789978027344, -0.5474954, -2.3968728, -0.6660347
2202, 3588299828, -52.112701416015625, 25.299097061157227, 80.25595092773438, 0.49982303, -1.9659487, -2.6791987
2205, 3588349829, -51.739837646484375, 22.954612731933594, 81.70304870605469, 2.1031196, -0.54178154, -1.5517826
2208, 3588399830, -45.48058319091797, 22.620384216308594, 82.4043960571289, 1.5671189, -0.3435982, -0.07483387
2212, 3588466498, -32.63571548461914, 21.991750717163086, 83.55926513671875, -1.0180199, -0.506612, -0.70756817
2215, 3588516499, -31.76552391052246, 19.738786697387695, 84.72509765625, -2.4624026, -0.48003832, -0.9321766
2218, 3588566500, -40.24530029296875, 16.198808670043945, 86.49853515625, -0.49368173, -0.34274918, -1.4906473
2221, 3588616501, -50.50564956665039, 13.229214668273926, 88.26385498046875, 1.122849, 0.75964344, -1.3793659
2224, 3588666502, -55.456268310546875, 12.861602783203125, 88.58306884765625, 2.739138, 0.7002434, 0.22501755
2227, 3588716503, -50.9545783996582, 14.181065559387207, 87.45865631103516, 2.3358257, 0.339908, 0.6858492
2230, 3588766504, -40.14812088012695, 16.555192947387695, 86.0000228881836, 0.22484398, -0.1910363, -0.009941101
2237, 3588883173, -34.62931823730469, 17.683059692382812, 84.68549346923828, -0.9587539, 0.0015607909, -0.010167122
2240, 3588933174, -41.77927017211914, 16.142248153686523, 85.08158874511719, -0.090047225, 0.28967726, -0.052165985
2243, 3588983175, -47.36642837524414, 14.744830131530762, 85.52075958251953, 0.56156915, 0.09451335, 0.37915897
2246, 3589033176, -49.00343322753906, 13.69258975982666, 85.50926971435547, 0.53882885, 0.4768365, 0.02654457
2249, 3589083177, -48.75088119506836, 13.501333236694336, 84.94868469238281, -0.49312657, 0.16439825, -0.6972666
2252, 3589133178, -48.13039779663086, 14.297853469848633, 84.83076477050781, -0.16887589, -0.019021846, -0.02957344
2256, 3589199846, -44.441619873046875, 15.523260116577148, 84.58460998535156, 0.73137945, 0.2585151, 0.5199394
2262, 3589299848, -35.60506057739258, 16.27109146118164, 84.51325225830078, -0.8274302, -0.33740464, -0.16792965
2265, 3589349849, -37.367435455322266, 15.17363452911377, 85.0382080078125, -2.0052464, -0.19174618, -0.50503445
2271, 3589449851, -50.19989776611328, 11.584694862365723, 87.82185363769531, 1.0260879, 0.5296527, -0.09476566
2278, 3589566520, -52.872222900390625, 11.748723030090332, 87.73899841308594, 1.0361737, 0.17993501, -0.20542908
2281, 3589616521, -50.17100524902344, 13.039952278137207, 86.33838653564453, 1.2870672, 0.15052167, 0.8895464
2284, 3589666522, -44.41034698486328, 15.073941230773926, 84.50643157958984, 0.46695143, -0.19177903, 0.4877863
2287, 3589716523, -38.3425178527832, 16.7814884185791, 82.78863525390625, -1.2359589, -0.26013488, -0.108180046
2290, 3589766524, -36.72492599487305, 17.306716918945312, 81.8786849975586, -1.8998123, 0.03700123, -0.3754692
2293, 3589816525, -40.480674743652344, 16.464860916137695, 81.83724975585938, -1.5033661, 0.023910746, -0.3171215
2297, 3589883193, -48.19602966308594, 14.841447830200195, 82.98499298095703, -0.023214726, 0.57817954, -0.066082954
2300, 3589933194, -52.0970573425293, 13.875286102294922, 83.70103454589844, 0.68149614, 0.3552838, -0.029432297
2303, 3589983195, -54.48550033569336, 13.803543090820312, 83.81336975097656, 0.77583015, 0.19111967, -0.69532394
2306, 3590033196, -55.61161422729492, 14.83143138885498, 83.18492889404297, 1.067215, -0.008099662, 0.29319763
2309, 3590083197, -54.02198791503906, 16.15509796142578, 81.95692443847656, 1.2638829, 0.3821801, 1.4757957
2312, 3590133198, -48.9876823425293, 18.00628089904785, 79.92752838134766, 0.3206831, 0.11132398, 0.6360121
2315, 3590183199, -43.2383918762207, 19.5080623626709, 78.21826171875, -1.3169181, -0.9220502, -0.5979557
2319, 3590249867, -43.08152389526367, 19.630502700805664, 77.3338851928711, -1.7410017, -0.21181585, -0.35364056
2322, 3590299868, -47.921932220458984, 18.586963653564453, 77.99030303955078, -1.0412126, 0.2351631, 0.39159584
2325, 3590349869, -52.62763977050781, 17.090137481689453, 79.3955078125, -0.0038909134, 0.40850726, 0.90824413
2328, 3590399870, -55.11857986450195, 15.633931159973145, 80.74229431152344, 0.37636766, 0.2057877, 0.41167164
2334, 3590499872, -58.87503433227539, 14.225947380065918, 81.84747314453125, 0.99185765, -0.24694799, -1.2570934
2337, 3590549873, -59.574058532714844, 15.190116882324219, 80.92096710205078, 1.4889022, -0.005356935, 0.9779711
2344, 3590666542, -42.776283264160156, 20.015615463256836, 76.14220428466797, -0.661517, -1.4495589, -0.6851673
2347, 3590716543, -37.2728271484375, 20.556482315063477, 74.94896697998047, -2.745487, -0.607221, -1.059905
2350, 3590766544, -41.08155822753906, 19.42818260192871, 75.30846405029297, -1.9585608, -0.33867264, -0.47739315
2353, 3590816545, -49.126861572265625, 17.54670524597168, 76.78091430664062, 0.2216454, 0.69525963, -0.5151968
2356, 3590866546, -54.993560791015625, 16.272701263427734, 77.40898895263672, 1.3376918, 1.1462871, -0.23588848
2360, 3590933214, -56.81238555908203, 17.336894989013672, 75.87619018554688, 1.0787382, -0.21214509, -0.53007317
2363, 3590983215, -53.991363525390625, 19.06406593322754, 74.85319519042969, 0.16692942, 0.39171517, 1.4806643
2366, 3591033216, -48.90440368652344, 21.09984016418457, 73.47725677490234, -0.3363056, -0.118542105, 0.7422352
2369, 3591083217, -43.850528717041016, 22.559595108032227, 72.71953582763672, -0.75312525, -0.4867162, 0.1752243
2372, 3591133218, -41.32240676879883, 22.71771240234375, 73.03475952148438, -1.0062186, -0.21211603, 0.24414062
2378, 3591233220, -47.467308044433594, 19.359163284301758, 75.97303009033203, -0.1574158, 0.10212007, -0.08543396
2382, 3591299888, -52.91876220703125, 16.82616424560547, 77.6067123413086, 0.14311971, 0.35118222, -0.84752655
2385, 3591349889, -55.36195373535156, 16.55043601989746, 77.97142791748047, 1.1179236, 0.2558573, -1.1305237
2388, 3591399890, -54.28972625732422, 18.28875732421875, 77.35647583007812, 1.4126973, 0.3126839, 0.5445099
2394, 3591499892, -38.504966735839844, 23.31605339050293, 75.6921615600586, 1.0862947, -0.46693152, 0.18626308
2397, 3591549893, -33.29859161376953, 24.357507705688477, 74.6884994506836, -0.076743335, -0.34978727, 0.12369251
2400, 3591599894, -36.493412017822266, 23.68952178955078, 73.33804321289062, -1.8502604, -0.57354945, -0.21259403
2404, 3591666562, -49.559566497802734, 21.20551109313965, 72.66561889648438, 0.03769155, 0.26860648, 0.31663418
2407, 3591716563, -55.232364654541016, 19.89666748046875, 72.45325469970703, 0.3991478, 0.61444384, -0.15360355
2413, 3591816565, -53.58784103393555, 21.502849578857422, 70.9384994506836, 0.06649343, 0.37246624, 0.40499687
2419, 3591916567, -43.112464904785156, 25.427349090576172, 70.66727447509766, -0.6503491, -1.242899, 0.5665722
2423, 3591983235, -34.96866989135742, 26.957061767578125, 72.67180633544922, 0.42392385, 0.046853103, 0.29577065
2426, 3592033236, -34.098880767822266, 26.21526336669922, 73.93983459472656, -1.103364, -0.1432014, 0.47129917
2429, 3592083237, -39.263580322265625, 24.374168395996094, 75.24304962158203, -0.6627615, -0.07923892, -0.46777248
2432, 3592133238, -46.58998107910156, 22.736228942871094, 76.24847412109375, 0.3698345, 0.27780446, -1.0443897
2435, 3592183239, -51.683494567871094, 22.56415367126465, 76.25655364990234, 1.2558893, 0.42753693, -0.32228756
2438, 3592233240, -51.198280334472656, 23.758968353271484, 75.4170913696289, 1.6600422, 0.14310394, 0.42984104
2441, 3592283241, -46.09226989746094, 25.49970054626465, 74.24073028564453, 0.4350199, 0.17423148, -0.21856308
2445, 3592349909, -41.21841049194336, 28.155258178710938, 72.42456817626953, -1.2958646, -0.4276163, -0.7496176
2448, 3592399910, -42.22452926635742, 30.410274505615234, 71.62039947509766, -1.021505, 0.12998731, -0.6925211
2454, 3592499912, -43.52682113647461, 35.64515686035156, 72.23587036132812, -0.45839974, 0.76470375, 0.46151733
2457, 3592549913, -40.27738571166992, 38.199214935302734, 73.48469543457031, -0.79165995, 0.1827701, -0.06511688
2463, 3592649915, -34.67648696899414, 42.78791046142578, 78.85794830322266, -1.387904, -0.104185425, 0.26749325
2467, 3592716583, -34.39820861816406, 44.62055969238281, 84.46009826660156, -0.6128899, -0.018123101, 0.53100395
2470, 3592766584, -34.43891143798828, 45.57680130004883, 89.06982421875, 0.20391819, -0.04911563, 0.41227245
2473, 3592816585, -34.23216247558594, 45.96223449707031, 93.40127563476562, 0.3685739, -0.19911115, -0.03998089
2476, 3592866586, -35.28822708129883, 46.06479263305664, 97.1238021850586, 0.34896874, -0.87367886, -0.06811905
2479, 3592916587, -39.04706954956055, 46.07674026489258, 99.93633270263672, 0.7680049, -0.8283494, -0.71290874
2482, 3592966588, -44.19562911987305, 46.71355438232422, 101.3785171508789, 2.3624673, -0.09149235, -0.17607689
2486, 3593033256, -47.79039001464844, 49.36030578613281, 101.54914855957031, 7.311381, 3.7748988, 4.368004
2489, 3593083257, -42.93836212158203, 49.45603942871094, 97.10037231445312, 1.3432189, -1.8424389, -1.1355381
2492, 3593133258, -37.72270202636719, 49.42848205566406, 95.51881408691406, -5.8667483, -2.8742716, 0.0323658
2495, 3593183259, -44.853633880615234, 47.73135757446289, 96.65714263916016, -5.470236, -1.3499006, -1.6249733
2498, 3593233260, -55.814666748046875, 46.158233642578125, 101.13774108886719, 0.1899695, 1.3240256, 0.6843252
2501, 3593283261, -58.92893981933594, 44.88111114501953, 105.33654022216797, 0.7177943, 2.2483542, 0.60523605
2504, 3593333262, -52.90122985839844, 44.646697998046875, 109.04474639892578, 0.72199243, 0.94353825, 0.77088165
2511, 3593449931, -48.65902328491211, 43.543148040771484, 114.99285888671875, 1.2538515, 0.4327631, 0.26862907
2514, 3593499932, -51.336219787597656, 43.18963623046875, 115.41716766357422, 2.2648125, 1.5616897, -0.0018386841
2517, 3593549933, -50.555267333984375, 43.25844192504883, 113.74382781982422, 1.1195982, 1.4784709, 1.4308004
2523, 3593649935, -42.72330093383789, 42.826297760009766, 109.29845428466797, -1.5333967, -1.2812117, -0.5373678
2526, 3593699936, -44.245452880859375, 41.812984466552734, 108.0472183227539, 0.2774696, -0.3179473, -0.596714
2530, 3593766604, -46.571327209472656, 40.5818977355957, 105.99549865722656, 0.79004747, 0.7902183, 0.4820118
2533, 3593816605, -44.47591018676758, 40.50246810913086, 103.79857635498047, 0.92068386, 0.7679415, -0.49379635
2536, 3593866606, -41.06904602050781, 40.01347732543945, 101.45586395263672, -1.4425844, -1.0482161, 0.49011898
2539, 3593916607, -39.72945022583008, 39.8670539855957, 100.42748260498047, -0.4593256, 0.033869363, -1.0201931
2542, 3593966608, -38.42063522338867, 40.605506896972656, 98.48384094238281, 3.5838058, -0.5208265, -0.6351433
2545, 3594016609, -37.78998947143555, 41.58113479614258, 95.03694152832031, -2.5289946, -2.7813795, -2.9829407
2549, 3594083277, -43.15745162963867, 44.87138748168945, 92.01834869384766, 0.018956343, -0.45753193, -0.41740894
2552, 3594133278, -47.244876861572266, 47.35920715332031, 89.31975555419922, 2.7756708, 1.2418326, 0.8805866
2561, 3594283281, -45.72037887573242, 50.70873260498047, 81.95806121826172, -2.5026114, 0.35973093, 0.71115017
2564, 3594333282, -47.81251907348633, 49.67189407348633, 82.79757690429688, -1.1708771, 1.6639303, 1.1738358
2567, 3594383283, -47.608985900878906, 48.44955062866211, 84.17578887939453, -0.7514293, 1.4410747, 0.39187145
2571, 3594449951, -44.380008697509766, 46.992591857910156, 86.46290588378906, -0.5977526, 0.13289388, -0.27200222
2574, 3594499952, -42.24336624145508, 46.00908660888672, 88.5283432006836, -1.2346332, 0.21259792, -0.19341373
2577, 3594549953, -41.62220764160156, 45.19979476928711, 90.84896087646484, -0.48583457, 0.17318276, -0.10461426
2580, 3594599954, -41.162933349609375, 44.03312301635742, 93.3706283569336, -0.44843158, 0.36172685, 0.7367182
2583, 3594649955, -40.52913284301758, 42.99679946899414, 95.3438720703125, 0.59575087, -0.17492326, -0.2800045
2586, 3594699956, -38.93632888793945, 42.303104400634766, 97.0169677734375, -0.30802995, -0.6348948, 0.53158
2589, 3594749957, -37.3756217956543, 40.45777130126953, 99.46124267578125, -1.174464, 0.5718836, 2.3337774
2596, 3594866626, -33.77926254272461, 34.280029296875, 105.55841827392578, -0.20353706, -0.86102945, -0.76150703
2599, 3594916627, -31.469703674316406, 32.426475524902344, 106.73002624511719, 8.796198, -4.6015024, -7.3115277
2602, 3594966628, -37.610694885253906, 31.900901794433594, 105.90474700927734, -2.4071362, -1.8277032, 2.69073
2605, 3595016629, -38.0159797668457, 31.055484771728516, 105.33206939697266, 1.6046546, 3.1190214, -0.3448305
2608, 3595066630, -32.448516845703125, 32.130680084228516, 103.77318572998047, 0.17000769, -1.2174578, -2.8401957
2612, 3595133298, -35.7717170715332, 33.982948303222656, 99.91795349121094, -0.09199431, -1.7112073, -3.1984496
2615, 3595183299, -43.27314376831055, 36.692501068115234, 96.35488891601562, 1.8235439, -0.0408271, -1.6358938
2618, 3595233300, -48.33607482910156, 40.79091262817383, 91.55878448486328, 0.8285556, -1.3753034, -0.0728302
2621, 3595283301, -52.533935546875, 45.96271896362305, 85.7071533203125, 0.10224528, -1.204193, -0.4104824
2627, 3595383303, -68.7003402709961, 56.509552001953125, 68.21583557128906, -0.9487072, -0.82587075, 1.2276449
2634, 3595499972, -90.0667724609375, 63.69911575317383, 44.181121826171875, -0.20812319, 1.0617018, 1.3729305
2637, 3595549973, -96.0045394897461, 64.51992797851562, 34.765419006347656, -0.6755476, 0.614883, 0.779006
2640, 3595599974, -102.94452667236328, 64.85932159423828, 25.360031127929688, -0.820631, 0.8433877, 0.28493023
2646, 3595699976, -112.79889678955078, 64.45298767089844, 12.061182975769043, -0.49251953, 0.41136643, -0.37952042
2649, 3595749977, -114.36054992675781, 64.2607421875, 8.693612098693848, 0.4759552, 0.10461435, 0.13191795
2652, 3595799978, -114.45651245117188, 64.12440490722656, 6.395819664001465, -0.11072049, 0.10037654, 0.09848404
2656, 3595866646, -114.3677749633789, 63.97404479980469, 4.371773719787598, -0.27488428, 0.3616936, 0.019414902
2659, 3595916647, -114.24119567871094, 63.922332763671875, 3.7912540435791016, -0.6229994, 0.3042056, -0.10125065
2662, 3595966648, -113.89354705810547, 63.974822998046875, 3.8771872520446777, -0.44767398, 0.4836293, -0.1081686
2665, 3596016649, -113.54418182373047, 64.21208190917969, 4.136821746826172, -0.47677782, 0.6068464, 0.018792152
2668, 3596066650, -112.36651611328125, 64.71399688720703, 5.116111755371094, -0.6480689, 1.0984563, -0.022658348
2671, 3596116651, -111.72747039794922, 65.12769317626953, 5.6692399978637695, 0.32255533, 0.050979506, -0.18862057
2675, 3596183319, -111.34988403320312, 65.19562530517578, 6.345195770263672, 0.36614507, -0.32022297, -0.041412354
2681, 3596283321, -111.44523620605469, 64.73472595214844, 6.6879963874816895, -0.09636851, 0.025120845, 0.102817535
2684, 3596333322, -111.3131103515625, 64.55328369140625, 6.873684883117676, 0.010246839, -0.1285385, -0.20606327
2687, 3596383323, -111.27371978759766, 64.36572265625, 7.1783881187438965, -0.11160348, 0.0760248, -0.39660168
2690, 3596433324, -110.91341400146484, 64.15473175048828, 7.886069297790527, 0.117406994, 0.06343879, -0.1715746
2693, 3596483325, -109.81834411621094, 64.01980590820312, 9.182862281799316, -0.46927428, 0.30509385, 0.11275482
2697, 3596549993, -107.55960845947266, 64.03121948242188, 11.77118968963623, -0.02877137, 0.25807455, -0.14844418
2703, 3596649995, -104.28758239746094, 63.794403076171875, 15.464642524719238, 0.1898185, -0.19713844, -0.3183298
2706, 3596699996, -103.1087417602539, 63.63658142089844, 17.096370697021484, 0.07614606, -0.18147129, -0.2621832
2709, 3596749997, -102.51790618896484, 63.46180725097656, 17.974227905273438, 0.12002176, -0.16485332, -0.25956726
2712, 3596799998, -102.53570556640625, 63.2943000793457, 18.226909637451172, 0.08874492, -0.33668694, -0.17897606
2715, 3596849999, -102.7178726196289, 63.12131118774414, 18.430906295776367, 0.27639523, -0.20985878, -0.17729282
2719, 3596916667, -103.00807189941406, 62.919349670410156, 18.422082901000977, 0.020043412, -0.14659612, -0.12374115
2722, 3596966668, -103.17595672607422, 62.78720474243164, 18.42362403869629, 0.20924479, -0.08746308, -0.16287327
2725, 3597016669, -103.38227081298828, 62.59016799926758, 18.36275291442871, 0.016451579, 0.019831114, -0.21590137
2731, 3597116671, -102.15618133544922, 62.20711135864258, 19.81792449951172, -0.031171005, -0.0024242215, -0.15988159
2734, 3597166672, -100.5506362915039, 62.15925598144531, 21.237756729125977, -0.020036818, 0.11804524, -0.11604977
2744, 3597333342, -98.1480484008789, 61.72058868408203, 23.260635375976562, 0.028770924, -0.15733099, -0.056484222
2750, 3597433344, -97.34838104248047, 61.75413131713867, 24.023359298706055, -0.011322831, -0.18391429, -0.2773075
2753, 3597483345, -97.07758331298828, 61.894081115722656, 24.270137786865234, 0.07893717, -0.10895944, -0.18767262
2760, 3597600014, -97.49632263183594, 62.48027801513672, 22.66579246520996, 0.16015261, -0.20389634, -0.21566486
2763, 3597650015, -98.18096160888672, 62.74514389038086, 21.166807174682617, 0.42587757, -0.24526791, -0.19739056
2769, 3597750017, -101.294921875, 63.2360725402832, 16.520145416259766, 0.40097016, -0.59086925, -0.16864967
2772, 3597800018, -103.04609680175781, 63.48824691772461, 14.154275894165039, -0.28775293, 0.1700918, -0.26657772
2775, 3597850019, -104.70429992675781, 63.79957580566406, 12.224226951599121, 0.011366751, -0.06561603, -0.12794495
2778, 3597900020, -106.08049011230469, 64.24181365966797, 10.820579528808594, -0.46435174, 0.024908284, -0.20072365
2782, 3597966688, -107.68370819091797, 65.18293762207031, 9.507554054260254, 0.23538831, 0.059375323, -0.20150948
2788, 3598066690, -111.4057846069336, 66.33082580566406, 6.430877685546875, 0.11882307, -0.2046127, 0.02766323
2791, 3598116691, -113.982666015625, 66.61649322509766, 4.4218974113464355, 0.51733816, 0.10215056, -0.015654564
2794, 3598166692, -115.56475067138672, 66.75646209716797, 2.1749584674835205, 0.051650938, 0.07416741, -0.019940376
2797, 3598216693, -116.78015899658203, 66.88643646240234, 0.4201689660549164, -0.37136745, 0.2686353, -0.20724201
2801, 3598283361, -118.1545181274414, 67.17427062988281, -1.045945167541504, 0.0074945013, 0.19739927, -0.21704292
2804, 3598333362, -119.01707458496094, 67.34199523925781, -1.9128220081329346, -0.113848, 0.17805131, -0.17278385
2807, 3598383363, -119.86001586914062, 67.5461196899414, -2.6741228103637695, -0.01632248, 0.21725482, -0.06943989
2810, 3598433364, -120.29169464111328, 67.67949676513672, -3.3789520263671875, -0.1358904, 0.22279929, -0.014644623
2813, 3598483365, -120.75421142578125, 67.83802795410156, -3.961601495742798, -0.09529866, 0.14617792, 0.092536926
2819, 3598583367, -121.23065185546875, 67.98560333251953, -4.327392101287842, 0.25846693, 0.069505826, -0.16375065
2826, 3598700036, -121.43386840820312, 67.7597427368164, -4.304163455963135, 0.23188871, -0.04729809, -0.28325272
2829, 3598750037, -121.36979675292969, 67.6185073852539, -4.267897129058838, 0.0589635, -0.09493378, -0.14016151
2832, 3598800038, -121.427978515625, 67.57215881347656, -4.260870456695557, -0.013340818, -0.15394947, -0.19909382
2835, 3598850039, -121.34122467041016, 67.58285522460938, -4.191288948059082, 0.023403035, -0.07547966, -0.18548965
2838, 3598900040, -121.19648742675781, 67.66324615478516, -3.9900035858154297, -0.12814064, -0.1435778, -0.2695322
2845, 3599016709, -121.46588897705078, 67.86061096191406, -3.94888973236084, -0.0063905707, -0.10179026, -0.03944111
2848, 3599066710, -121.43350982666016, 68.0084228515625, -3.9172205924987793, 0.12477465, -0.082036175, -0.1755743
2851, 3599116711, -121.31462860107422, 68.10596466064453, -3.8436434268951416, 0.10714418, -0.11811118, -0.12883568
2854, 3599166712, -121.25926208496094, 68.14031219482422, -3.856407642364502, -0.006430356, 0.060768478, -0.045101166
2857, 3599216713, -121.20573425292969, 68.205810546875, -3.90647029876709, -0.28618598, 0.24643153, -0.09841347
2864, 3599333382, -120.8420181274414, 68.20194244384766, -3.123840093612671, 0.07325179, -0.32667267, -0.18935299
2870, 3599433384, -120.62348937988281, 68.01898956298828, -3.04526686668396, -0.047025643, -0.1320328, -0.1307106
2873, 3599483385, -120.42278289794922, 68.0123519897461, -3.1408653259277344, 0.014082769, 0.0243799, -0.22084618
2876, 3599533386, -120.40103149414062, 67.9686508178711, -3.3417906761169434, 0.023244118, -0.08488486, -0.25102615
2879, 3599583387, -120.04920959472656, 67.8435287475586, -3.339564800262451, 0.2200133, 0.0528369, -0.1405096
2886, 3599700056, -117.70790100097656, 67.64434814453125, -2.475895643234253, -0.35029912, 0.10751286, -0.13129234
2889, 3599750057, -116.49490356445312, 67.71092987060547, -1.2092053890228271, -0.12872201, 0.17269439, -0.11578941
2895, 3599850059, -113.87841033935547, 68.0454330444336, 1.6849277019500732, -0.10883684, -0.1308266, -0.14904499
2898, 3599900060, -112.75492858886719, 68.29981231689453, 2.94553542137146, 0.14047007, -0.021949867, -0.18272209
2911, 3600116731, -112.14698028564453, 68.53327178955078, 4.996984004974365, 0.26205876, -0.26521778, -0.1133194
2914, 3600166732, -112.34893035888672, 68.46559143066406, 4.786736011505127, 0.20486136, -0.09723104, -0.03490734
2917, 3600216733, -112.51065826416016, 68.35469055175781, 4.398999214172363, 0.05510064, -0.23289089, -0.15887737
2920, 3600266734, -112.67020416259766, 68.22464752197266, 4.109380722045898, 0.2009682, -0.028174479, -0.19038582
2923, 3600316735, -112.84905242919922, 68.05429077148438, 3.780454158782959, 0.1443687, -0.19961384, -0.22166824
2926, 3600366736, -113.17610931396484, 67.86817932128906, 3.2551660537719727, 0.028339071, 0.0053226417, -0.2011528
2930, 3600433404, -113.46317291259766, 67.63919067382812, 2.6796295642852783, -0.09367484, -0.14874877, -0.1918354
2933, 3600483405, -113.62699127197266, 67.55719757080078, 2.545079231262207, -0.11522618, 0.009072168, -0.09803009
2936, 3600533406, -113.70320892333984, 67.59576416015625, 2.3903467655181885, 0.09047324, 0.09612577, -0.14616585
2939, 3600583407, -113.55240631103516, 67.64867401123047, 2.2221078872680664, -0.15926471, 0.11792007, -0.18176842
2945, 3600683409, -114.10114288330078, 67.67601013183594, 1.8721933364868164, 0.1888661, 0.0036276153, -0.25048447
2949, 3600750077, -114.12382507324219, 67.5745620727539, 1.8914639949798584, 0.107433885, 0.13586225, 0.04804802
2952, 3600800078, -113.45635223388672, 67.5675277709961, 2.5430612564086914, -0.00784374, 0.16267452, 0.0012378693
2955, 3600850079, -112.53706359863281, 67.52616119384766, 3.3608274459838867, 0.08835333, 0.06667503, -0.24174976
2961, 3600950081, -110.45947265625, 67.11810302734375, 5.065998554229736, 0.1438232, 0.2863105, 0.36035824
2964, 3601000082, -108.4839859008789, 66.81692504882812, 6.898910999298096, -0.1871912, 0.18637046, -0.040751457
2967, 3601050083, -107.14978790283203, 66.5313720703125, 8.913603782653809, -0.20119262, 0.09159405, -0.15286064
2971, 3601116751, -104.84996032714844, 66.14273834228516, 11.866181373596191, 0.22040094, 0.019754678, -0.11746597
2974, 3601166752, -102.48411560058594, 65.8522720336914, 13.728631973266602, -0.045169845, 0.05437467, -0.10543728
2977, 3601216753, -100.36392211914062, 65.4831314086914, 15.443401336669922, -0.05726793, -0.14328007, -0.23568249
2983, 3601316755, -97.63465881347656, 64.68314361572266, 19.3138484954834, 0.07288881, -0.009966219, -0.032790184
2986, 3601366756, -95.69805908203125, 64.32628631591797, 21.5577335357666, 0.14276108, -0.032770127, 0.04291153
2990, 3601433424, -92.53266906738281, 63.9342041015625, 24.50775146484375, 0.097282335, -0.35945085, -0.26519108
2993, 3601483425, -90.93063354492188, 63.666378021240234, 26.064573287963867, -0.029580165, -0.60652924, -0.2810564
2996, 3601533426, -90.78772735595703, 63.56351089477539, 26.692323684692383, -0.080919065, -0.4016738, -0.4805298
2999, 3601583427, -91.38286590576172, 63.62104797363281, 26.75388526916504, -0.12192296, -0.22938196, -0.41552067
3002, 3601633428, -92.43362426757812, 63.8636474609375, 26.163372039794922, 0.08443392, 0.17734993, -0.2125082
3005, 3601683429, -93.69361114501953, 64.20343780517578, 24.66506576538086, 0.15839736, -0.1125899, -0.28748798
3008, 3601733430, -94.88513946533203, 64.58048248291016, 23.08858299255371, -0.09708643, -0.34252512, 0.15285492
3012, 3601800098, -97.10102081298828, 65.19538879394531, 21.317058563232422, 0.5516075, -0.31053996, -0.15404606
3018, 3601900100, -101.00232696533203, 65.72796630859375, 17.249895095825195, 0.16974714, -0.034768112, -0.12839603
3021, 3601950101, -103.300537109375, 65.7801284790039, 14.64355182647705, 0.40959978, -0.102408946, -0.3145752
3024, 3602000102, -105.37580108642578, 65.67964935302734, 11.978845596313477, 0.028112566, -0.17611569, -0.08752537
3027, 3602050103, -107.35623931884766, 65.53492736816406, 9.59614372253418, -0.11680164, 0.03027279, 0.036216736
3030, 3602100104, -108.80316925048828, 65.47048950195312, 7.695883274078369, -0.124759905, 0.26468897, -0.03307247
3034, 3602166772, -109.96831512451172, 65.5606460571289, 5.971492290496826, -0.3018765, 0.25673392, -0.14865112
3037, 3602216773, -110.52005767822266, 65.74105072021484, 5.0981574058532715, -0.092836216, 0.21178679, -0.26477718
3040, 3602266774, -110.9908218383789, 65.97052001953125, 4.527989864349365, -0.07267255, 0.2748074, -0.07693291
3043, 3602316775, -111.40669250488281, 66.20938110351562, 4.123122215270996, -0.038330685, -0.03119034, -0.12876415
3046, 3602366776, -111.88045501708984, 66.45903778076172, 3.7673628330230713, 0.18203834, -0.1817252, -0.25522423
3049, 3602416777, -112.49363708496094, 66.62955474853516, 3.122250556945801, 0.083333924, -0.02048552, 0.027434349
3053, 3602483445, -113.16385650634766, 66.85428619384766, 3.0158371925354004, 0.30704868, 0.2713758, -0.17247486
3056, 3602533446, -113.77134704589844, 66.84324645996094, 2.6140823364257812, -0.4271696, -0.007101901, -0.28374004
3059, 3602583447, -114.51038360595703, 66.87191009521484, 2.547149419784546, 0.09440472, -0.06786792, -0.10533428
3062, 3602633448, -115.3553695678711, 67.06493377685547, 2.608309268951416, -0.28589496, -0.04448489, -0.12091923
3065, 3602683449, -115.9500961303711, 67.29965209960938, 2.513173818588257, 0.6752083, -0.02687028, -0.10232067
3068, 3602733450, -116.345703125, 67.29468536376953, 1.6972193717956543, 0.32164487, -0.54526454, -0.14204311
3071, 3602783451, -117.47087097167969, 67.14738464355469, 0.316629558801651, -0.08599304, -0.3687273, -0.09427452
3075, 3602850119, -119.2380142211914, 66.96441650390625, -1.4198908805847168, 0.16691266, 0.10551085, -0.0419569
3081, 3602950121, -120.09412384033203, 66.74675750732422, -3.0297205448150635, -0.21976733, 0.007434935, -0.27874088
