sep=,
DeviceTag:,Xsens_5,,,,,,,,,,,,,,,,,
FirmwareVersion:,2.2.1,,,,,,,,,,,,,,,,,
AppVersion:,2022.0.1,,,,,,,,,,,,,,,,,
SyncStatus:,Synced,,,,,,,,,,,,,,,,,
OutputRate:,60Hz,,,,,,,,,,,,,,,,,
FilterProfile:,General,,,,,,,,,,,,,,,,,
Measurement Mode:,Sensor fusion Mode - Complete (Euler),,,,,,,,,,,,,,,,,
StartTime:,2023-05-17 15:21:16.696 +0200,,,,,,,,,,,,,,,,,
© Xsens Technologies B. V. 2005-2023,,,,,,,,,,,,,,,,,,,

PacketCounter,SampleTimeFine,Euler_X,Euler_Y,Euler_Z,FreeAcc_X,FreeAcc_Y,FreeAcc_Z
1, 3198925374, -84.98360443115234, 69.69625091552734, 61.96852493286133, 0.18237919, 0.019831633, -0.25742912
2, 3198942041, -85.00862121582031, 69.71588134765625, 61.89317321777344, 0.10682447, 0.032183185, -0.17261124
3, 3198958708, -85.02558898925781, 69.74217224121094, 61.77936935424805, 0.012195147, 0.0716587, -0.049304962
4, 3198975375, -85.05545806884766, 69.77330780029297, 61.63166809082031, -0.10773084, 0.12612121, 0.05367756
5, 3198992042, -85.09928131103516, 69.80904388427734, 61.46334457397461, -0.10094024, 0.22058247, 0.05662346
6, 3199008709, -85.15280151367188, 69.84082794189453, 61.279117584228516, -0.010710238, 0.26102224, -0.12052441
7, 3199025376, -85.22176361083984, 69.84922790527344, 61.08128356933594, 0.004422469, 0.15238601, -0.27260208
8, 3199042043, -85.31427764892578, 69.83873748779297, 60.89720916748047, -0.034181416, -0.0315417, -0.2957344
9, 3199058710, -85.41729736328125, 69.82559967041016, 60.78547286987305, -0.11638613, -0.24878289, -0.22611427
10, 3199075377, -85.5157470703125, 69.81307220458984, 60.77972412109375, -0.11112992, -0.43641755, -0.14928055
11, 3199092044, -85.62863159179688, 69.798095703125, 60.864013671875, -0.056804713, -0.51961464, -0.069913864
12, 3199108711, -85.78583526611328, 69.78527069091797, 60.97490310668945, 0.015396997, -0.4833081, -0.066521645
13, 3199125378, -85.97865295410156, 69.78153228759766, 61.064048767089844, 0.10662518, -0.2748845, -0.11952019
14, 3199142045, -86.1625747680664, 69.78949737548828, 61.11289978027344, 0.17623048, 0.011068809, -0.12017441
16, 3199175379, -86.30712127685547, 69.8455581665039, 61.06227493286133, 0.12039246, 0.31769907, 0.050574303
19, 3199225380, -85.91918182373047, 69.96888732910156, 60.66049575805664, -0.10403089, 0.1544964, -0.064603806
22, 3199275381, -85.5564193725586, 70.02671813964844, 60.47966766357422, -0.16072325, -0.18154639, -0.23740196
26, 3199342049, -85.90808868408203, 70.082763671875, 60.676025390625, 0.08251383, -0.10740937, -0.2200203
29, 3199392050, -86.30787658691406, 70.15824890136719, 60.85165786743164, 0.0477459, 0.017779611, -0.054647446
32, 3199442051, -86.21312713623047, 70.22074127197266, 61.00834274291992, 0.08876226, 0.0704895, -0.07384777
35, 3199492052, -85.84471130371094, 70.28060150146484, 60.92905044555664, -0.019084122, -0.03976698, -0.029066086
38, 3199542053, -85.4676742553711, 70.27684783935547, 60.93592834472656, -0.15166533, -0.2098999, -0.21734715
41, 3199592054, -85.400390625, 70.27009582519531, 61.124202728271484, -0.033830233, 0.02064063, -0.17934799
48, 3199708723, -85.06298065185547, 70.07884216308594, 61.82172393798828, -0.0529453, 0.08348499, -0.15272903
51, 3199758724, -84.64979553222656, 70.0177230834961, 62.00592041015625, -0.054698385, -0.18415657, -0.1868658
54, 3199808725, -84.4520263671875, 69.96790313720703, 62.1370735168457, 0.07404289, -0.09540561, -0.15961552
57, 3199858726, -84.25898742675781, 69.9305419921875, 62.373233795166016, -0.0057264855, -0.060630124, 0.0072755814
60, 3199908727, -83.88214111328125, 69.98604583740234, 62.65743637084961, 0.020662796, 0.15176441, -0.13015461
63, 3199958728, -83.3960952758789, 69.9876480102539, 62.77959060668945, -0.07000506, -0.08909139, -0.06618595
66, 3200008729, -82.84752655029297, 69.99242401123047, 63.21628952026367, 0.0068505043, -0.115604475, -0.11950207
70, 3200075397, -82.74769592285156, 70.07252502441406, 63.13685607910156, 0.23847933, 0.26143348, -0.41610909
73, 3200125398, -82.85826873779297, 70.033935546875, 62.94668197631836, -0.15262347, -0.26695114, -0.11674404
76, 3200175399, -82.95719146728516, 70.00518035888672, 63.41414260864258, 0.2172205, -0.0074742734, -0.15794277
82, 3200275401, -82.5910415649414, 69.9827880859375, 63.465087890625, -0.07291137, -0.28835115, -0.13185406
85, 3200325402, -81.98408508300781, 70.05359649658203, 63.7596321105957, 0.07274516, -0.31280816, 0.10991478
89, 3200392070, -80.96978759765625, 70.25459289550781, 64.46245574951172, 0.029893573, 0.23543984, -0.18915558
92, 3200442071, -80.699951171875, 70.35286712646484, 64.12171936035156, -0.16366594, 0.16699211, -0.18399906
95, 3200492072, -80.67384338378906, 70.32563781738281, 63.60990905761719, -0.350126, 0.026634252, -0.060321808
98, 3200542073, -80.89909362792969, 70.33001708984375, 63.33879852294922, -0.12609816, 0.24449567, 0.01827526
101, 3200592074, -81.09818267822266, 70.3157730102539, 63.151302337646484, -0.17855608, 0.027757403, -0.08973789
104, 3200642075, -81.22889709472656, 70.30416107177734, 63.26557159423828, -0.034433372, 0.08496152, -0.23921967
107, 3200692076, -81.3929214477539, 70.316650390625, 63.33747100830078, -0.16804735, -0.02156319, -0.36245918
111, 3200758744, -82.75350952148438, 70.52027130126953, 61.914955139160156, -0.1877622, 0.21048103, 0.25832844
117, 3200858746, -85.54357147216797, 70.65418243408203, 59.95534133911133, -0.1170603, 0.1585268, -0.11685562
120, 3200908747, -86.55516815185547, 70.64054870605469, 59.058712005615234, -0.2999021, 0.043482434, -0.06285858
123, 3200958748, -86.3638916015625, 70.69309997558594, 58.81312561035156, -0.29323027, 0.26929915, -0.04229641
126, 3201008749, -85.95812225341797, 70.62037658691406, 58.254486083984375, 0.30821145, -0.20909436, -0.1195097
129, 3201058750, -86.18341064453125, 70.60023498535156, 57.75247573852539, -0.18886966, -0.4540335, -0.21903515
133, 3201125418, -87.95140075683594, 70.57439422607422, 57.06673812866211, -0.076423496, -6.079552E-4, 0.06250572
136, 3201175419, -89.03360748291016, 70.48584747314453, 56.270355224609375, 0.23686436, 0.27981117, 0.010273933
139, 3201225420, -89.68329620361328, 70.27455139160156, 55.343231201171875, -0.2369066, -0.30048478, -0.0033073425
142, 3201275421, -89.61019134521484, 70.08003234863281, 55.66304016113281, -0.05446656, -0.25787026, -0.09029007
145, 3201325422, -89.53607940673828, 69.9832763671875, 56.12746810913086, 0.20161115, -0.04047216, -0.35965443
151, 3201425424, -89.65959930419922, 69.84662628173828, 56.225528717041016, 0.08218776, -0.07386924, -0.17160797
158, 3201542093, -88.9608383178711, 69.60086059570312, 56.91368103027344, 0.031388875, 0.10556405, 0.0026769638
161, 3201592094, -88.28131103515625, 69.6321029663086, 57.27030563354492, 0.049635913, 0.1353666, -0.19634914
167, 3201692096, -88.19733428955078, 69.4920654296875, 57.7528076171875, 0.10270647, -0.032022476, -0.20056725
170, 3201742097, -88.3511962890625, 69.37053680419922, 58.01889419555664, -0.10726778, -0.11657721, 0.22823715
174, 3201808765, -87.41285705566406, 69.23775482177734, 59.05720520019531, -0.08756436, 0.06562653, 0.0897007
177, 3201858766, -86.10853576660156, 69.25975799560547, 59.980712890625, 2.0395557E-5, 0.10767647, -0.28686237
180, 3201908767, -85.33094787597656, 69.20291137695312, 60.57855224609375, 0.02262602, -0.20803647, -0.46920204
183, 3201958768, -85.3432388305664, 69.15299224853516, 61.02694320678711, 0.2799111, 0.014918819, -0.40976715
186, 3202008769, -85.63414001464844, 69.05420684814453, 61.02948760986328, 0.204176, 0.018859338, -0.14406967
189, 3202058770, -85.75714111328125, 68.9776611328125, 60.839595794677734, -0.046347827, -0.12511294, -0.045401573
192, 3202108771, -85.64984893798828, 68.94264221191406, 60.768646240234375, -0.108820945, -0.083071046, -0.08274174
196, 3202175439, -85.51171875, 68.98808288574219, 60.767086029052734, -0.10525703, 0.14148816, -0.0335474
199, 3202225440, -85.3174819946289, 68.98497009277344, 60.90342330932617, -0.08543344, 0.22634576, -0.062130928
202, 3202275441, -85.12740325927734, 68.93937683105469, 61.11785888671875, -0.09451737, 0.11114226, -0.09856987
205, 3202325442, -85.1898193359375, 68.8915023803711, 61.2121696472168, 0.04306318, -0.051251296, -0.20447159
208, 3202375443, -85.483154296875, 68.83350372314453, 61.2640380859375, 0.071763776, -0.13763303, -0.23119164
211, 3202425444, -85.78687286376953, 68.80560302734375, 61.238616943359375, 0.14097135, -0.004114203, -0.15033627
215, 3202492112, -85.90516662597656, 68.82147216796875, 60.86589431762695, -0.06556929, -0.0058017257, -0.08219719
221, 3202592114, -85.99886322021484, 68.83830261230469, 60.904441833496094, 0.1185223, -0.009575742, -0.2756834
224, 3202642115, -86.28369903564453, 68.87238311767578, 60.60856628417969, 0.15736477, 0.013933127, -0.15155411
227, 3202692116, -86.50727844238281, 68.8813705444336, 60.175750732421875, 0.029218508, 0.003313356, 0.0055799484
230, 3202742117, -86.64689636230469, 68.86601257324219, 59.923728942871094, -0.096213445, -0.07253845, -0.13173103
233, 3202792118, -86.74307250976562, 68.88130187988281, 59.816558837890625, -0.13248888, 0.08027356, -0.10494995
237, 3202858786, -86.71248626708984, 68.87322998046875, 59.922027587890625, -0.06158367, -0.01317877, -0.14753819
240, 3202908787, -86.81747436523438, 68.87561798095703, 59.886756896972656, 0.072206534, -0.08005742, -0.22495842
243, 3202958788, -87.02053833007812, 68.87944793701172, 59.75425338745117, 0.03368093, 0.026940687, -0.124074936
246, 3203008789, -87.18148040771484, 68.8764877319336, 59.6519889831543, 0.005573631, -0.13462476, -0.18227673
249, 3203058790, -87.36752319335938, 68.88367462158203, 59.549278259277344, 0.021995226, -0.057369296, -0.03665161
255, 3203158792, -87.32227325439453, 68.90452575683594, 59.486480712890625, 0.018255211, 0.0030654802, -0.1454668
259, 3203225460, -86.92145538330078, 68.90199279785156, 59.59861373901367, 0.03194365, 0.092332534, -0.19162369
262, 3203275461, -86.78253173828125, 68.89729309082031, 59.53315734863281, 0.017039943, -0.0740418, -0.121525764
265, 3203325462, -86.93732452392578, 68.90398406982422, 59.48663330078125, 0.07879977, 0.049528014, -0.1781187
268, 3203375463, -87.18521118164062, 68.90711212158203, 59.41487503051758, -0.0076611023, 0.03203544, -0.15155506
271, 3203425464, -87.41454315185547, 68.88226318359375, 59.31831359863281, 0.003835636, -0.054156743, -0.04174328
274, 3203475465, -87.47188568115234, 68.89271545410156, 59.29785919189453, 0.05564436, -0.020061182, -0.101135254
278, 3203542133, -87.43045043945312, 68.9550552368164, 59.14656448364258, -0.047678206, 0.053319015, -0.14008427
281, 3203592134, -87.49258422851562, 68.984375, 59.095420837402344, 0.071898654, -0.090286046, -0.2173109
284, 3203642135, -87.68524932861328, 69.01502990722656, 59.01640701293945, 0.17973863, 0.063993104, -0.24800396
293, 3203792138, -88.18753814697266, 69.16845703125, 58.25935745239258, -0.12754923, -0.027801659, -0.096889496
300, 3203908807, -88.84483337402344, 69.20789337158203, 57.907833099365234, 0.07841122, -0.07677826, -0.12218571
303, 3203958808, -88.7907943725586, 69.21173858642578, 57.87027359008789, 0.056043305, -0.059836876, -0.18556595
306, 3204008809, -88.72291564941406, 69.2652816772461, 57.74030303955078, 0.002154553, -0.114500545, -0.23246479
309, 3204058810, -88.9605484008789, 69.32093811035156, 57.37620544433594, 0.017471742, -0.01952626, -0.07739353
312, 3204108811, -89.27667999267578, 69.37088775634766, 57.03508758544922, 5.155326E-4, 0.10023863, -0.09214401
315, 3204158812, -89.46111297607422, 69.36489868164062, 56.81754684448242, -0.01780521, -0.0039610965, -0.054408073
318, 3204208813, -89.48123931884766, 69.3775405883789, 56.746192932128906, -0.049352527, -0.037003912, -0.045186996
322, 3204275481, -89.27932739257812, 69.42373657226562, 56.90372085571289, 0.018115306, -0.0825449, -0.107572556
325, 3204325482, -89.19344329833984, 69.46179962158203, 57.039512634277344, 0.17752992, 0.042822402, -0.18416882
331, 3204425484, -89.25431060791016, 69.46038055419922, 56.879886627197266, -0.011796446, -0.063843094, -0.09443855
334, 3204475485, -89.27143859863281, 69.44339752197266, 56.94440460205078, 0.007929485, 0.052713744, -0.12683105
337, 3204525486, -89.31956481933594, 69.43648529052734, 56.90349578857422, 0.009114272, -0.017245589, -0.15321636
341, 3204592154, -89.4551010131836, 69.42752838134766, 56.833030700683594, 0.047878597, -0.01120694, -0.11105156
344, 3204642155, -89.45630645751953, 69.41339874267578, 56.91642379760742, -0.0888904, 0.004358726, -0.06043148
347, 3204692156, -89.28977966308594, 69.39693450927734, 57.11949920654297, -0.062069546, -0.027733935, -0.10936165
350, 3204742157, -89.04242706298828, 69.37481689453125, 57.382877349853516, 0.079031125, -0.086325176, -0.14509583
353, 3204792158, -88.96479034423828, 69.37816619873047, 57.50124740600586, 0.09029147, -0.10033452, -0.21522236
356, 3204842159, -88.95681762695312, 69.34821319580078, 57.56101608276367, 0.045538377, -0.10312508, -0.1196394
363, 3204958828, -88.55152893066406, 69.31310272216797, 57.89820098876953, -0.018737426, -0.06843967, -0.15763378
366, 3205008829, -88.51628875732422, 69.30313873291016, 57.947898864746094, 0.025434684, 0.006653534, -0.048391342
369, 3205058830, -88.4697265625, 69.29206848144531, 58.02853775024414, 0.0049633286, 0.0936488, -0.1584425
372, 3205108831, -88.3332290649414, 69.24066162109375, 58.1867561340332, -0.06054836, -0.04897348, -0.06387901
375, 3205158832, -88.19625091552734, 69.23442840576172, 58.37749099731445, 0.0663096, -0.0056238095, -0.19684029
381, 3205258834, -88.0788345336914, 69.25862884521484, 58.43227005004883, 0.08492122, -0.02992816, -0.124183655
385, 3205325502, -88.21765899658203, 69.24563598632812, 58.3248176574707, -0.034940913, 0.022389516, -0.08188248
388, 3205375503, -88.17884826660156, 69.22917938232422, 58.39841079711914, -0.023810975, 0.005107718, -0.08490276
391, 3205425504, -88.04170227050781, 69.2243423461914, 58.53644943237305, 0.05477291, -0.0037308782, -0.202178
394, 3205475505, -88.01119995117188, 69.2498550415039, 58.55958938598633, 0.09436587, -0.018884834, -0.18000317
400, 3205575507, -88.00865173339844, 69.23860168457031, 58.62139129638672, 0.08229997, -0.050091043, -0.20593739
403, 3205625508, -87.89604949951172, 69.21754455566406, 58.69688415527344, -0.06121545, -0.16363719, -0.00860405
407, 3205692176, -87.10542297363281, 69.23641204833984, 59.34085464477539, -0.30354506, -0.037386566, 0.5658417
410, 3205742177, -85.2279052734375, 69.07070922851562, 61.32756423950195, -0.25732887, 0.11149565, -0.1075449
413, 3205792178, -83.1688461303711, 69.0085678100586, 63.47100830078125, 0.19170235, -0.04211632, -0.430789
416, 3205842179, -81.51692962646484, 69.00780487060547, 64.77836608886719, -0.24489638, 0.14907308, -0.52333546
419, 3205892180, -80.33806610107422, 68.96837615966797, 66.13560485839844, -0.15922923, 0.1768781, -0.272851
422, 3205942181, -79.18035125732422, 68.83707427978516, 67.62725067138672, -0.026271867, 0.09490472, 0.0040216446
426, 3206008849, -76.87741088867188, 68.58114624023438, 70.43911743164062, -0.19706032, -0.12779063, 0.021158218
429, 3206058850, -74.7873306274414, 68.38660430908203, 73.05989837646484, 0.10033192, -0.019010894, -0.11861706
435, 3206158852, -71.5514907836914, 67.969482421875, 77.34861755371094, 0.17117128, -0.12383065, -0.1857729
438, 3206208853, -70.70978546142578, 67.7927017211914, 78.91603088378906, 0.26952842, 0.0075947465, -0.35506535
441, 3206258854, -70.4010009765625, 67.6644515991211, 79.79581451416016, 0.315255, -0.042971037, -0.30484486
444, 3206308855, -70.44612121582031, 67.60741424560547, 80.04995727539062, 0.21806356, -0.21755612, -0.1904726
448, 3206375523, -70.7818832397461, 67.69972229003906, 79.78224182128906, 0.056921773, -0.05908319, -0.019848824
451, 3206425524, -70.96660614013672, 67.84719848632812, 79.41593933105469, 0.009771365, -0.055353653, -0.15452194
454, 3206475525, -71.00420379638672, 67.97747039794922, 79.11717987060547, -0.0955408, 0.021236703, -0.15479851
457, 3206525526, -70.8990249633789, 68.12307739257812, 78.90721130371094, -0.00842201, 0.11007074, -0.158288
460, 3206575527, -70.7442626953125, 68.38861846923828, 78.39347076416016, 0.088330954, 0.021586435, -0.20965958
463, 3206625528, -70.72124481201172, 68.74082946777344, 77.5684585571289, 0.08833873, -0.008297024, -0.15382099
470, 3206742197, -71.02487182617188, 69.17865753173828, 75.95659637451172, -0.08137027, 0.13783306, -0.0034542084
473, 3206792198, -71.31055450439453, 69.20340728759766, 75.32129669189453, -0.21286267, 0.069217496, -0.01935482
479, 3206892200, -71.87801361083984, 68.54776000976562, 75.36886596679688, -0.14030802, 0.633319, -0.8900862
482, 3206942201, -69.29813385009766, 68.20382690429688, 76.93423461914062, -1.5378723, -0.46064925, 0.68265724
485, 3206992202, -65.82843780517578, 68.10055541992188, 79.84675598144531, -0.33298346, -0.35151234, 0.2907524
489, 3207058870, -60.893672943115234, 68.02983093261719, 84.66963958740234, 0.051256396, -0.37898588, -0.25977612
492, 3207108871, -58.62593078613281, 68.1844253540039, 87.75711059570312, -0.069913305, -1.1203883, -0.08144665
498, 3207208873, -57.64174270629883, 68.28915405273438, 94.02400970458984, 0.91678655, 0.42055863, 0.014227867
501, 3207258874, -57.15808868408203, 68.48649597167969, 95.51473236083984, 0.5607119, -0.07187919, -0.36003017
504, 3207308875, -57.16800308227539, 68.43980407714844, 96.24422454833984, 0.5359455, 0.20716298, -0.097545624
511, 3207425544, -57.486820220947266, 67.9743881225586, 96.2531967163086, 0.2568072, -0.09332616, -0.39629364
514, 3207475545, -57.77727508544922, 68.02062225341797, 95.5195083618164, 0.051065426, 0.22506793, -0.17391205
517, 3207525546, -57.97358703613281, 68.15632629394531, 94.41341400146484, -0.100712836, -0.015155072, -0.06582451
520, 3207575547, -58.31231689453125, 68.24642181396484, 93.31141662597656, -0.35969648, -0.07258784, 0.111037254
526, 3207675549, -58.905662536621094, 68.38835144042969, 91.420166015625, -0.2418969, -0.038535643, -0.0834589
530, 3207742217, -59.42311096191406, 68.5600357055664, 90.12832641601562, -0.4871439, -0.04399182, 0.083354
533, 3207792218, -59.91661834716797, 68.64031219482422, 89.71598815917969, -0.2785156, 0.030504335, 0.005801201
536, 3207842219, -60.02543640136719, 68.64920043945312, 89.71773529052734, -0.29783064, 0.19077021, 0.055431366
539, 3207892220, -59.81189727783203, 68.6522445678711, 90.0042724609375, -0.020186126, -0.07933838, -0.13170433
542, 3207942221, -59.914005279541016, 68.65387725830078, 90.12582397460938, 0.19628541, -0.04541113, -0.23494053
545, 3207992222, -60.14590072631836, 68.61500549316406, 89.96660614013672, 0.35688448, -0.40966326, 0.49756432
548, 3208042223, -60.21800994873047, 68.7066650390625, 89.08149719238281, 1.1338439, -0.21833192, 0.29446125
552, 3208108891, -60.7393913269043, 69.68346405029297, 83.41477966308594, 1.3068372, -0.03379449, -0.5026369
555, 3208158892, -63.3428955078125, 70.95328521728516, 75.54326629638672, 0.46690515, -1.0524572, -0.6899042
558, 3208208893, -69.08796691894531, 71.92344665527344, 65.2995834350586, 0.40929353, -0.67158514, -0.39049244
561, 3208258894, -78.2221450805664, 72.81098175048828, 51.966854095458984, 0.12024611, 0.43045533, 0.2475586
564, 3208308895, -87.90316009521484, 72.33576202392578, 39.03133773803711, -0.6665138, -0.2588765, 0.10359764
567, 3208358896, -97.35610961914062, 71.41651153564453, 27.776615142822266, -1.2269458, -0.12165475, -0.25606823
570, 3208408897, -105.93375396728516, 70.2785873413086, 19.048053741455078, -0.99974906, -0.49882326, -0.5832195
577, 3208525566, -118.99916076660156, 68.43382263183594, 3.928473949432373, -0.053004257, -0.16833493, -0.009962082
580, 3208575567, -122.30681610107422, 67.72523498535156, -0.9330468773841858, -0.7321244, -0.019148802, -0.35482025
583, 3208625568, -125.39193725585938, 67.3687744140625, -4.179116249084473, -0.21991831, 0.37796286, -0.31755066
586, 3208675569, -127.47171020507812, 67.22822570800781, -6.251368045806885, 0.1307363, 0.4443679, -0.08672714
589, 3208725570, -128.36061096191406, 67.3071060180664, -8.039916038513184, -0.14853343, 0.27216768, -0.059106827
592, 3208775571, -128.75889587402344, 67.57572937011719, -9.253067970275879, -0.16627665, 0.3049908, -0.09610081
596, 3208842239, -129.4562530517578, 67.90280151367188, -10.527759552001953, 0.023686673, 0.5800099, -0.08862686
599, 3208892240, -129.64356994628906, 68.0557632446289, -10.676711082458496, 0.051688265, 0.32971781, -0.07643604
602, 3208942241, -129.37411499023438, 68.15775299072266, -10.102994918823242, -0.061046194, 0.25039062, -0.044882774
605, 3208992242, -129.15235900878906, 68.2264404296875, -9.475128173828125, -0.16420335, 0.055906624, -0.08435345
615, 3209158912, -128.31312561035156, 68.39112854003906, -8.042343139648438, -0.13149345, -0.16129164, -0.20583534
618, 3209208913, -128.47898864746094, 68.38162994384766, -8.036534309387207, 0.03744546, 0.16574804, -0.23674107
621, 3209258914, -128.4990692138672, 68.44892120361328, -7.95841121673584, 0.18398537, -0.17838793, -0.11011791
624, 3209308915, -128.5460968017578, 68.48580932617188, -7.898770809173584, 0.1918985, -0.026591336, -0.2029314
627, 3209358916, -128.6954803466797, 68.49835968017578, -7.962686538696289, -0.0437882, -0.11472563, -0.22278404
630, 3209408917, -128.9390106201172, 68.54058837890625, -8.189470291137695, 0.11888933, 0.050595958, -0.16714
633, 3209458918, -129.10618591308594, 68.62567901611328, -8.280006408691406, -0.028201396, 0.056102406, -0.12344742
637, 3209525586, -129.31764221191406, 68.79439544677734, -8.175581932067871, 0.09738873, -0.011090713, -0.07848644
640, 3209575587, -129.32974243164062, 68.9107666015625, -8.06166934967041, 0.15041986, 0.112647176, -0.15638733
643, 3209625588, -129.03163146972656, 69.03034973144531, -7.782231330871582, 0.12157987, -0.018694848, -0.10681915
649, 3209725590, -128.33544921875, 69.22236633300781, -6.942739009857178, 0.10792435, -0.0010198896, -0.16899014
652, 3209775591, -127.85487365722656, 69.32299041748047, -6.44088888168335, 0.053294763, -0.04673902, -0.17761898
656, 3209842259, -127.2973403930664, 69.44635772705078, -5.8422675132751465, 0.14347643, 0.021542674, -0.15246105
659, 3209892260, -126.98160552978516, 69.51164245605469, -5.447487831115723, -1.20697E-5, -0.09380213, -0.16481209
662, 3209942261, -126.87296295166016, 69.5495834350586, -5.268008708953857, 0.1149735, -0.031730346, -0.122117996
665, 3209992262, -126.92838287353516, 69.59271240234375, -5.309725761413574, 0.22143015, -0.038031623, -0.18854427
668, 3210042263, -127.00160217285156, 69.61642456054688, -5.578277587890625, 0.06407066, -0.014790076, -0.19017315
671, 3210092264, -127.18109130859375, 69.63152313232422, -5.954375267028809, 0.067412175, 0.04352468, -0.21049595
674, 3210142265, -127.39498138427734, 69.63439178466797, -6.3303914070129395, -0.06220142, 0.093773074, -0.22689438
678, 3210208933, -127.6507568359375, 69.62651062011719, -6.480653762817383, 0.04289079, 0.11123639, -0.107782364
684, 3210308935, -127.86182403564453, 69.67166137695312, -6.439204216003418, 0.20751981, 0.03873077, -0.043626785
687, 3210358936, -127.7864761352539, 69.7001724243164, -6.436431407928467, 0.07990298, -0.02673729, -0.18028069
690, 3210408937, -127.78296661376953, 69.71940612792969, -6.464420795440674, -0.048818804, 0.027725441, -0.21139526
693, 3210458938, -127.85072326660156, 69.7261962890625, -6.576033115386963, 0.07667154, 0.06197478, -0.18446445
696, 3210508939, -127.95372009277344, 69.71070098876953, -6.684950351715088, -0.005126158, -0.019670034, -0.16505432
703, 3210625608, -128.5116729736328, 69.63357543945312, -6.945613384246826, 0.09460577, -0.01585668, -0.17868996
706, 3210675609, -128.69497680664062, 69.58136749267578, -7.127017498016357, 0.033450168, 0.022861352, -0.07978439
709, 3210725610, -128.9097137451172, 69.53475952148438, -7.319312572479248, 0.038643714, -0.0063350275, -0.11667442
712, 3210775611, -129.0992431640625, 69.50308990478516, -7.47043514251709, 0.11084784, 0.026552863, -0.09983063
715, 3210825612, -129.26788330078125, 69.47796630859375, -7.656680583953857, 0.09967091, 0.029218284, -0.17917347
719, 3210892280, -129.45811462402344, 69.41547393798828, -7.780921936035156, 0.011936374, 0.051120766, -0.20330524
728, 3211042283, -129.68072509765625, 69.28564453125, -7.55065393447876, 0.08871229, -0.058161646, -0.06577587
731, 3211092284, -129.6580352783203, 69.2532730102539, -7.51345682144165, 0.21404149, -0.03298649, -0.13938999
737, 3211192286, -129.69064331054688, 69.17245483398438, -7.643165111541748, 0.11948869, -0.008363408, -0.22112846
741, 3211258954, -129.8297882080078, 69.08918762207031, -7.8171234130859375, -0.011759911, 0.024560275, -0.16481113
744, 3211308955, -129.87881469726562, 69.05271911621094, -7.880062103271484, 0.12108725, 0.002646617, -0.14825535
747, 3211358956, -129.93695068359375, 69.03563690185547, -7.901541233062744, 0.079016075, -0.03609712, -0.1873312
750, 3211408957, -130.042724609375, 68.98063659667969, -8.007885932922363, 0.11227011, 0.024703545, -0.09565067
753, 3211458958, -130.134521484375, 68.91085815429688, -8.226929664611816, 0.12821162, 0.08433032, -0.1853857
759, 3211558960, -130.26174926757812, 68.6682357788086, -8.609884262084961, -0.07280521, 0.044638444, -0.16444206
763, 3211625628, -130.40420532226562, 68.53821563720703, -8.61329460144043, 0.13069227, 0.08113431, -0.17410183
766, 3211675629, -130.2552947998047, 68.43888092041016, -8.481916427612305, 0.11788006, 0.039408688, -0.2820425
769, 3211725630, -130.05990600585938, 68.31507873535156, -8.294397354125977, -0.15743437, -0.035202395, -0.2708826
772, 3211775631, -130.14328002929688, 68.20036315917969, -8.150259971618652, 0.030446153, -0.017751846, -0.1278696
775, 3211825632, -130.26956176757812, 68.12704467773438, -8.068042755126953, 0.181654, -0.19084474, 0.064421654
778, 3211875633, -130.3580780029297, 68.07217407226562, -8.144742012023926, 0.27829242, -0.04521198, -0.04867363
781, 3211925634, -130.33766174316406, 68.01712799072266, -8.359103202819824, 0.08380663, -0.011038187, -0.15890503
785, 3211992302, -130.22044372558594, 67.96356964111328, -8.513337135314941, 0.050021082, 0.09319551, -0.20378971
788, 3212042303, -130.11546325683594, 67.9529800415039, -8.506422996520996, 0.055947527, 0.008157552, -0.21036625
794, 3212142305, -130.16171264648438, 67.94122314453125, -8.250911712646484, 0.21991663, -0.05178929, -0.22124863
797, 3212192306, -130.13143920898438, 67.93526458740234, -8.230633735656738, 0.07976406, -0.024029206, -0.23520374
800, 3212242307, -130.26820373535156, 67.91283416748047, -8.353083610534668, 0.060005404, -0.04444734, -0.23935032
804, 3212308975, -130.8456268310547, 67.79423522949219, -8.86929702758789, -0.08122505, 0.016998608, -0.16666031
807, 3212358976, -131.31382751464844, 67.75550842285156, -9.196869850158691, 0.09053716, -0.0039526033, -0.117227554
810, 3212408977, -131.5046844482422, 67.74146270751953, -9.376391410827637, 0.08442129, -0.029699061, -0.14514923
813, 3212458978, -131.52896118164062, 67.75074768066406, -9.312453269958496, 0.15925947, -0.03529605, -0.16541672
816, 3212508979, -131.44992065429688, 67.768310546875, -9.16849422454834, 0.13521159, -0.070007384, -0.12646389
819, 3212558980, -131.27206420898438, 67.7740249633789, -9.030779838562012, 0.07753798, -0.10697978, -0.11750507
822, 3212608981, -131.2545928955078, 67.76434326171875, -9.063664436340332, 0.13201077, -0.035560686, -0.24807358
829, 3212725650, -131.31346130371094, 67.8173599243164, -9.167428016662598, 0.22475512, -0.016986314, -0.09855938
832, 3212775651, -131.20779418945312, 67.85417938232422, -9.232295989990234, 0.1719749, 0.049705483, -0.23410988
835, 3212825652, -131.1145782470703, 67.86406707763672, -9.286601066589355, 0.044596203, -0.005785956, -0.31006145
838, 3212875653, -131.11062622070312, 67.84994506835938, -9.408395767211914, 0.022220988, 0.12102355, -0.12387371
841, 3212925654, -131.13861083984375, 67.86752319335938, -9.4697904586792, -0.026068652, 0.027775284, -0.049793243
844, 3212975655, -131.23074340820312, 67.91629791259766, -9.604310989379883, 0.13623819, 0.08374159, -0.07348156
848, 3213042323, -131.19029235839844, 68.01445007324219, -9.675962448120117, 0.020148687, 0.030984484, -0.18491936
851, 3213092324, -131.13328552246094, 68.05152130126953, -9.641035079956055, 0.14297497, 0.09054331, -0.25992107
854, 3213142325, -131.107421875, 68.05912780761719, -9.542784690856934, 0.03686008, -0.05375576, -0.21208
857, 3213192326, -131.2530059814453, 68.0252456665039, -9.501260757446289, 0.11420726, -0.09958715, -0.1303873
863, 3213292328, -131.4355926513672, 67.93169403076172, -9.795167922973633, 0.0709115, 0.07854357, -0.1216383
867, 3213358996, -131.35659790039062, 67.92593383789062, -9.878889083862305, -0.02914799, -0.03833672, -0.20988369
870, 3213408997, -131.3866424560547, 67.94193267822266, -9.799042701721191, 0.058102977, -0.064872846, -0.15032387
873, 3213458998, -131.3243865966797, 67.9892349243164, -9.719717979431152, 0.06546594, -0.0046316353, -0.13020897
876, 3213508999, -131.22557067871094, 68.02432250976562, -9.743355751037598, 0.033653565, 0.004467353, -0.17609787
879, 3213559000, -131.26904296875, 67.99991607666016, -9.83191204071045, 0.041856322, -0.04138876, -0.22737408
882, 3213609001, -131.4537353515625, 67.93344116210938, -9.94762134552002, 0.0687508, -0.015176083, -0.14297295
885, 3213659002, -131.54141235351562, 67.88404083251953, -10.016443252563477, 0.047365747, -0.0027306578, -0.06704426
889, 3213725670, -131.504150390625, 67.83157348632812, -10.2075777053833, 5.879508E-4, 0.08741771, -0.06956291
892, 3213775671, -131.4662322998047, 67.80425262451172, -10.260653495788574, 0.08544833, 0.057410643, -0.23695087
895, 3213825672, -131.43638610839844, 67.77669525146484, -10.24565315246582, 0.0651329, 0.08775499, -0.2507658
898, 3213875673, -131.38095092773438, 67.72391510009766, -10.1017484664917, -0.06867514, -6.316476E-4, -0.18589497
901, 3213925674, -131.4290771484375, 67.71749114990234, -9.944689750671387, 0.1524906, -0.0037679814, -0.17114449
904, 3213975675, -131.38888549804688, 67.68968200683594, -9.798208236694336, 0.09060343, -0.09159695, -0.12130928
908, 3214042343, -131.34799194335938, 67.70706176757812, -9.711626052856445, 0.23463239, -0.06806953, -0.1424036
911, 3214092344, -131.3248748779297, 67.69581604003906, -9.86893367767334, 0.17379943, 0.018061187, -0.19926167
914, 3214142345, -131.2561492919922, 67.68986511230469, -10.065369606018066, -0.0030977777, 0.07142133, -0.14911366
917, 3214192346, -131.22640991210938, 67.72228240966797, -10.161078453063965, 0.06385318, 0.0044517075, -0.17280102
920, 3214242347, -131.1218719482422, 67.81226348876953, -10.058513641357422, 0.13968274, -0.052835558, -0.2138071
926, 3214342349, -131.05323791503906, 67.91496276855469, -9.869044303894043, 0.015448992, -0.06898973, -0.13614655
930, 3214409017, -131.10972595214844, 67.96569061279297, -9.92821216583252, 0.13056275, -0.056524415, -0.15668964
933, 3214459018, -131.0274200439453, 67.9981689453125, -10.056406021118164, 0.03740087, 0.008568592, -0.14507484
936, 3214509019, -130.9409637451172, 68.05769348144531, -10.106746673583984, 0.07506962, 0.019946296, -0.19879627
939, 3214559020, -130.84388732910156, 68.13299560546875, -10.011141777038574, 0.113180146, 0.080880396, -0.2024889
942, 3214609021, -130.6949005126953, 68.17379760742188, -9.886229515075684, 0.01844697, 0.057948638, -0.24574852
945, 3214659022, -130.68280029296875, 68.19979095458984, -9.724288940429688, 0.09623607, -0.029665533, -0.15321445
948, 3214709023, -130.8048553466797, 68.19224548339844, -9.716181755065918, 0.030956544, -0.019526092, -0.10840416
952, 3214775691, -130.84616088867188, 68.21592712402344, -9.59054183959961, 0.09367953, -0.06136101, 0.0034151077
955, 3214825692, -130.77194213867188, 68.2813720703125, -9.409526824951172, 0.13005728, 0.07561845, -0.15766335
961, 3214925694, -130.44007873535156, 68.3204345703125, -9.235322952270508, -0.04900309, -0.0022568102, -0.20726204
964, 3214975695, -130.55145263671875, 68.34928131103516, -9.2633638381958, 0.021835987, -0.0024508196, -0.16639423
967, 3215025696, -130.70164489746094, 68.40161895751953, -9.397832870483398, 0.020724792, -0.0017192616, -0.18322754
970, 3215075697, -130.80406188964844, 68.5229721069336, -9.591739654541016, 0.018258438, 0.058914214, -0.113596916
974, 3215142365, -131.0016326904297, 68.69830322265625, -9.634958267211914, 0.03846155, 0.08905225, -0.12827873
977, 3215192366, -131.1096649169922, 68.85240936279297, -9.512274742126465, 0.030502925, 0.06862116, -0.15724373
980, 3215242367, -131.06309509277344, 69.009521484375, -9.285643577575684, 0.15569101, 0.02296346, -0.15827942
983, 3215292368, -130.9036407470703, 69.13450622558594, -9.064626693725586, 0.17731796, -0.051831312, -0.0705843
986, 3215342369, -130.709716796875, 69.19542694091797, -8.902823448181152, 0.14410037, -1.3231966E-4, -0.15598297
989, 3215392370, -130.55770874023438, 69.21826934814453, -8.808277130126953, -0.0563199, 0.0064094574, -0.21461773
996, 3215509039, -130.04200744628906, 69.203369140625, -8.393982887268066, -0.15760726, 0.021005524, 0.06068325
999, 3215559040, -129.7434844970703, 69.08106994628906, -8.048084259033203, -0.10137106, -0.009308644, 0.08433628
1002, 3215609041, -129.1463623046875, 68.96292877197266, -7.23344087600708, 0.07825658, -0.118906446, -0.26905823
1005, 3215659042, -128.1384735107422, 68.94246673583984, -5.938056468963623, 0.104228005, -0.09490271, -0.26171017
1008, 3215709043, -126.71375274658203, 69.06346130371094, -4.401590347290039, 0.42367193, 0.014664462, -0.25063038
1011, 3215759044, -125.1482162475586, 69.20825958251953, -3.0518577098846436, 0.0051130825, -0.07442222, -0.2673807
1015, 3215825712, -123.92800903320312, 69.41920471191406, -1.7606782913208008, 0.18591483, 0.092671156, -0.33189678
1018, 3215875713, -123.50909423828125, 69.5289306640625, -1.2706369161605835, 0.006216789, 0.022564527, -0.45509434
1021, 3215925714, -123.63053894042969, 69.58570861816406, -1.4068208932876587, 0.25698057, 0.09528313, -0.13934326
1024, 3215975715, -123.7209243774414, 69.641845703125, -1.700322151184082, 0.086103894, -0.021834087, -0.0348444
1030, 3216075717, -124.58663940429688, 69.66085815429688, -2.7380759716033936, -0.09481017, 0.019621756, -0.2367382
1033, 3216125718, -125.20121765136719, 69.65686798095703, -3.241462230682373, 0.11465868, 0.24917738, -0.17913151
1037, 3216192386, -125.71709442138672, 69.66326904296875, -3.6430270671844482, 0.0844613, 0.044223603, 0.02300644
1040, 3216242387, -126.11515808105469, 69.62419128417969, -3.8503799438476562, 0.01743848, 0.005768646, -0.09623051
1043, 3216292388, -126.47510528564453, 69.56746673583984, -4.022367477416992, 0.23660915, 0.0449527, -0.050180435
1046, 3216342389, -126.59249114990234, 69.50599670410156, -4.160999298095703, 0.0262811, -0.025457455, -0.20836926
1049, 3216392390, -126.778076171875, 69.40150451660156, -4.289390563964844, 0.08221399, -0.035766095, -0.20737648
1052, 3216442391, -126.89276123046875, 69.3138427734375, -4.274923801422119, -0.064560376, -0.11628239, -0.038942337
1056, 3216509059, -126.9892807006836, 69.25743865966797, -4.291610240936279, 0.11822058, -0.01122035, -0.22789001
1059, 3216559060, -126.99480438232422, 69.19760131835938, -4.367115497589111, -0.029242424, -0.11110918, -0.17167377
1062, 3216609061, -127.06227111816406, 69.1741943359375, -4.358553886413574, 0.113545924, 0.006641911, -0.1571064
1065, 3216659062, -127.0910415649414, 69.13858032226562, -4.385530948638916, 0.13097401, -0.01782337, -0.13795376
1068, 3216709063, -127.02821350097656, 69.12403869628906, -4.323276996612549, 0.02631541, -0.026910737, -0.1155262
1071, 3216759064, -127.00348663330078, 69.07703399658203, -4.362977981567383, 0.107925914, 0.028290706, -0.193017
1074, 3216809065, -127.03963470458984, 69.03656005859375, -4.490593910217285, 0.0069781863, 0.04106179, -0.16859627
1078, 3216875733, -127.21298217773438, 68.99400329589844, -4.710406303405762, 0.032070756, 0.051855676, -0.098436356
1081, 3216925734, -127.28031921386719, 68.99624633789062, -4.732250690460205, 0.049278185, 0.027649129, -0.15345669
1084, 3216975735, -127.23040008544922, 69.01055908203125, -4.706911563873291, 0.11969767, 0.05271084, -0.19519043
1087, 3217025736, -127.20726013183594, 68.99894714355469, -4.629560947418213, -0.061429743, 0.0031758957, -0.24041653
1093, 3217125738, -127.40154266357422, 68.94606018066406, -4.4656596183776855, 0.13741945, -0.06573874, -0.069989204
1097, 3217192406, -127.4218521118164, 68.91737365722656, -4.583255290985107, 0.091960944, -0.04092634, -0.20184994
1100, 3217242407, -127.50773620605469, 68.9100112915039, -4.796966075897217, 0.004317488, -0.050194975, -0.2275505
1103, 3217292408, -127.74956512451172, 68.86701965332031, -5.092050552368164, 0.013418912, 0.073613375, -0.20253086
1106, 3217342409, -127.97669219970703, 68.85403442382812, -5.26579475402832, 0.01531589, -0.054985527, -0.17583752
1109, 3217392410, -128.1377716064453, 68.8197250366211, -5.350269317626953, 0.09671998, -0.002355603, -0.09095478
1112, 3217442411, -128.1337890625, 68.79718780517578, -5.307193279266357, 0.19311765, -0.07811443, -0.11056709
1115, 3217492412, -128.04360961914062, 68.76334381103516, -5.238702297210693, 0.07228677, -0.03126499, -0.14745617
1119, 3217559080, -127.98931884765625, 68.7006607055664, -5.3097991943359375, 0.018037496, 0.04185973, -0.20505619
1122, 3217609081, -128.0948486328125, 68.6620101928711, -5.481813907623291, 0.0016619306, 0.061639957, -0.16746235
1128, 3217709083, -128.31439208984375, 68.64982604980469, -5.724693298339844, 0.09783643, 0.061701197, -0.14220905
1131, 3217759084, -128.29165649414062, 68.66279602050781, -5.662609577178955, 0.10335295, 0.0076723057, -0.16392422
1134, 3217809085, -128.25390625, 68.65814208984375, -5.581407070159912, 0.049900945, -0.0060100397, -0.1851883
1137, 3217859086, -128.29849243164062, 68.65064239501953, -5.5202484130859375, 0.06702762, -0.036245815, -0.23369503
1141, 3217925754, -128.44305419921875, 68.62378692626953, -5.642083644866943, 0.12506801, 0.026213823, -0.1610117
1144, 3217975755, -128.54600524902344, 68.62438201904297, -5.796962738037109, 0.02921292, -0.02767895, -0.1387558
1147, 3218025756, -128.6647491455078, 68.634765625, -5.943198204040527, 0.11312941, 0.033748444, -0.1690321
1150, 3218075757, -128.7007293701172, 68.6595230102539, -6.039656639099121, 0.030124182, 0.027862677, -0.13480759
1153, 3218125758, -128.7188720703125, 68.67113494873047, -6.134142875671387, 0.004536754, 0.007453263, -0.16939354
1156, 3218175759, -128.77984619140625, 68.68440246582031, -6.183586597442627, 0.1110666, -8.790764E-4, -0.16163063
1163, 3218292428, -129.05250549316406, 68.67063903808594, -6.44523286819458, 0.057399467, -0.04465856, -0.15188599
1166, 3218342429, -129.1163330078125, 68.6607666015625, -6.533228874206543, 0.07577603, -0.019619074, -0.052134514
1169, 3218392430, -129.14846801757812, 68.6545181274414, -6.6024580001831055, 0.048531033, -0.029210685, -0.13023663
1172, 3218442431, -129.1849365234375, 68.65998077392578, -6.654143810272217, 0.091461726, -0.022628898, -0.21528721
1175, 3218492432, -129.20350646972656, 68.66414642333984, -6.729142189025879, 0.13378368, 0.010967557, -0.18575287
1178, 3218542433, -129.2457733154297, 68.66451263427734, -6.858890533447266, 0.030118817, 0.020174503, -0.20410252
1182, 3218609101, -129.42095947265625, 68.63170623779297, -7.0616984367370605, 0.01124896, 0.0036439318, -0.14729881
1185, 3218659102, -129.57305908203125, 68.62507629394531, -7.11677885055542, 0.09423318, 0.04843816, -0.12665367
1188, 3218709103, -129.63406372070312, 68.5913314819336, -7.173782825469971, 0.019753851, 0.0312223, -0.15625381
1191, 3218759104, -129.6510009765625, 68.58680725097656, -7.108672142028809, 0.12291961, -0.008896262, -0.092796326
1197, 3218859106, -129.57257080078125, 68.5816650390625, -7.029372692108154, 0.009327531, -0.04750343, -0.17463398
1200, 3218909107, -129.60073852539062, 68.57955169677734, -7.000659465789795, 0.06691386, -0.030733926, -0.16571331
1204, 3218975775, -129.60726928710938, 68.58269500732422, -6.987981796264648, 0.027878886, -5.0779094E-4, -0.20091248
1207, 3219025776, -129.6071319580078, 68.61550903320312, -7.0061936378479, 0.13417996, -0.018801238, -0.23181057
1210, 3219075777, -129.59378051757812, 68.61387634277344, -6.977831840515137, 0.021921368, -0.07291194, -0.18561745
1213, 3219125778, -129.60430908203125, 68.61874389648438, -6.979250431060791, 0.1247494, 0.0039517093, -0.0768671
1216, 3219175779, -129.5015869140625, 68.6426010131836, -6.994090557098389, 0.058175616, -0.030914525, -0.14274597
1219, 3219225780, -129.401611328125, 68.66264343261719, -7.120846748352051, 0.22500524, 0.03870261, -0.18768692
1222, 3219275781, -129.2725067138672, 68.65455627441406, -7.2582550048828125, -0.10393576, -0.02304441, -0.16370773
1226, 3219342449, -129.2240753173828, 68.68435668945312, -7.378064155578613, 0.042634327, 0.12556338, -0.10126114
1229, 3219392450, -129.1676025390625, 68.69061279296875, -7.461982727050781, 0.071540795, 0.05069922, -0.19436073
1232, 3219442451, -129.15948486328125, 68.72782897949219, -7.401943683624268, 0.032820307, 0.14413434, -0.13010883
1235, 3219492452, -129.0463409423828, 68.76602935791016, -7.105245113372803, -0.024872186, 0.011018071, -0.07890034
1238, 3219542453, -128.75491333007812, 68.84517669677734, -6.6591291427612305, 0.13219528, 0.038874492, -0.09904766
1241, 3219592454, -128.35543823242188, 68.93260955810547, -6.278475761413574, 0.1262096, -0.050715983, -0.1797638
1245, 3219659122, -127.9647445678711, 68.94944763183594, -5.959530353546143, 0.027240865, -0.055295765, -0.2661867
1248, 3219709123, -127.8431396484375, 68.96353912353516, -5.800842761993408, 0.09270672, -0.0010023954, -0.25286198
1251, 3219759124, -127.74177551269531, 69.02727508544922, -5.629039764404297, -0.105011865, -0.14701743, -0.24194622
1254, 3219809125, -127.96065521240234, 69.10250854492188, -5.754818439483643, 0.122375354, -0.11687716, -0.14694405
1260, 3219909127, -128.2984161376953, 69.35551452636719, -6.759276390075684, 0.16083932, 0.09524969, -0.10268307
1263, 3219959128, -128.26560974121094, 69.47053527832031, -7.002503395080566, -0.056535926, 0.004903204, -0.18188858
1267, 3220025796, -128.25662231445312, 69.56695556640625, -7.0245819091796875, 0.12238195, 0.044507686, -0.20056248
1273, 3220125798, -127.84680938720703, 69.69845581054688, -6.73157262802124, 0.04743839, -0.046274558, -0.14038754
1276, 3220175799, -127.7934799194336, 69.74608612060547, -6.707801342010498, 0.06279876, -0.022567209, -0.1818428
1279, 3220225800, -127.87433624267578, 69.77720642089844, -6.827581405639648, 0.12491848, -0.053148028, -0.20378304
1282, 3220275801, -127.98638153076172, 69.77565002441406, -7.071615695953369, 0.1503734, 0.044043712, -0.15364361
1285, 3220325802, -127.94371795654297, 69.79180145263672, -7.137642860412598, -0.015982294, 0.043857265, -0.1524477
1289, 3220392470, -128.06423950195312, 69.99539184570312, -7.193563938140869, -0.16733454, 0.0740114, -0.19362068
1292, 3220442471, -128.12017822265625, 70.18760681152344, -7.06605863571167, 0.32198662, 0.053686917, -0.005393982
1298, 3220542473, -127.7005615234375, 70.23831176757812, -6.7078657150268555, 0.12945513, -0.08098187, -0.1971817
1301, 3220592474, -127.51876068115234, 70.1846694946289, -6.646727561950684, 0.061076146, -0.101676494, -0.13084602
1304, 3220642475, -127.36705780029297, 70.2101821899414, -6.760652542114258, -0.11436091, 0.014293242, -0.23980713
1308, 3220709143, -127.37578582763672, 70.28551483154297, -6.966409206390381, -0.020133153, 0.08596264, -0.039237022
1311, 3220759144, -127.4183578491211, 70.35460662841797, -7.0167670249938965, 0.26857877, -0.022176284, -0.07685089
1314, 3220809145, -127.2366714477539, 70.33905029296875, -7.074633598327637, 0.2514673, 0.10717178, -0.012288094
1317, 3220859146, -126.88732147216797, 70.25706481933594, -7.066732406616211, -0.01945535, 0.12538049, -0.21088028
1320, 3220909147, -126.68297576904297, 70.16454315185547, -6.962320327758789, -0.19073936, 0.16140787, -0.26343727
1323, 3220959148, -126.63026428222656, 70.15074157714844, -6.712790012359619, -0.091462955, 0.019857114, -0.19246674
1326, 3221009149, -126.59313201904297, 70.16543579101562, -6.470969200134277, 0.09882614, -0.039741274, -0.19604588
1333, 3221125818, -126.67793273925781, 70.15921783447266, -6.3099284172058105, 0.181633, 0.006642358, -0.11790943
1336, 3221175819, -126.72152709960938, 70.09818267822266, -6.425536632537842, 0.059352078, -0.06130111, -0.13006496
1339, 3221225820, -126.77922821044922, 70.03582000732422, -6.4690680503845215, 0.025863243, -0.042307425, -0.1395626
1342, 3221275821, -126.77183532714844, 69.98787689208984, -6.43407678604126, 0.07272251, 0.013041981, -0.13654804
1345, 3221325822, -126.69208526611328, 69.98119354248047, -6.353959560394287, 0.041148063, -0.08100825, -0.19915009
1348, 3221375823, -126.68457794189453, 69.97532653808594, -6.338422775268555, 0.0037373602, 0.13769606, -0.09335041
1352, 3221442491, -126.71028137207031, 70.01902770996094, -6.188514709472656, 0.014912672, 0.051690947, -0.123389244
1355, 3221492492, -126.54861450195312, 70.10091400146484, -5.7831645011901855, 0.06304786, 0.24589197, -0.026768684
1358, 3221542493, -125.79957580566406, 70.18418884277344, -4.864924430847168, -0.008656768, 0.22921991, -0.11197376
1361, 3221592494, -124.38801574707031, 70.25606536865234, -3.2243828773498535, 0.09276592, 0.2700014, -0.09417248
1367, 3221692496, -119.7198715209961, 70.40249633789062, 2.2403228282928467, -0.08323768, 0.6639855, -0.04141617
1371, 3221759164, -113.52255249023438, 70.2712173461914, 9.043578147888184, -0.40012708, 0.73195887, 0.17332077
1374, 3221809165, -105.96936798095703, 70.05500030517578, 17.331031799316406, -0.8393859, 1.0365199, 0.48426247
1377, 3221859166, -96.93070983886719, 69.57649230957031, 27.93802833557129, -0.50543946, 0.43364197, 0.21382809
1380, 3221909167, -86.31600952148438, 68.45821380615234, 40.03505325317383, -0.37438285, 0.6316579, 0.8244753
1383, 3221959168, -76.30750274658203, 66.3979721069336, 51.646488189697266, -0.30792052, 0.09405665, 0.58560944
1386, 3222009169, -67.81998443603516, 63.3841438293457, 61.86030578613281, -0.18798915, -0.2358265, 0.57157326
1389, 3222059170, -61.230926513671875, 59.74861145019531, 70.26246643066406, -0.4680267, -0.18751642, 0.72192574
1393, 3222125838, -55.07362747192383, 54.12812805175781, 79.36247253417969, -0.02021398, -0.23823375, 0.5128641
1396, 3222175839, -51.436058044433594, 49.61832046508789, 84.56776428222656, 0.18819195, -0.3542989, 0.4012184
1399, 3222225840, -49.003997802734375, 44.97411346435547, 88.63792419433594, -0.12296063, -0.6436999, 0.3035307
1402, 3222275841, -47.274330139160156, 40.42946243286133, 92.19044494628906, 0.39442766, -0.24366936, 0.07073212
1405, 3222325842, -46.357322692871094, 36.147518157958984, 94.94171142578125, -0.19696414, -0.7062708, 0.029496193
1408, 3222375843, -46.15785598754883, 31.94455909729004, 97.44436645507812, 0.33827668, -0.41367888, -0.066428185
1411, 3222425844, -45.93923568725586, 27.729167938232422, 99.58263397216797, 0.256271, -0.3447531, -0.32129383
1415, 3222492512, -45.551448822021484, 22.40729331970215, 102.11460876464844, 0.2825575, -0.20613359, -0.13575077
1418, 3222542513, -45.43579864501953, 18.68607521057129, 103.776611328125, 0.003884711, -0.4156124, -0.507987
1421, 3222592514, -46.010860443115234, 15.066866874694824, 105.34780883789062, 0.1860685, -0.4499272, -0.377388
1424, 3222642515, -46.722618103027344, 11.805665969848633, 106.70964813232422, 0.47785595, -0.019011565, -0.2009697
1430, 3222742517, -47.643157958984375, 6.037442207336426, 109.45260620117188, 0.35766062, -0.3539074, -0.31189823
1433, 3222792518, -47.46682357788086, 3.415698766708374, 110.87059783935547, 0.5192855, 0.25182736, -0.6648884
1437, 3222859186, -47.297855377197266, 0.36405327916145325, 112.4861831665039, -0.017899029, -0.107407026, -0.9168968
1440, 3222909187, -48.700233459472656, -1.4353059530258179, 113.46279907226562, 0.43781585, 0.048336465, -0.6148176
1443, 3222959188, -49.13587188720703, -2.741144895553589, 114.18988037109375, 0.44387537, 0.55696, 0.06749916
1446, 3223009189, -48.60394287109375, -3.6511902809143066, 114.56025695800781, 0.006041667, -0.120329544, -0.64751816
1449, 3223059190, -48.6888542175293, -4.320969581604004, 114.97630310058594, 0.022173714, 0.09650647, -0.5098133
1452, 3223109191, -49.49165344238281, -4.8771748542785645, 115.22708129882812, 0.030524382, 0.098078154, -0.113129616
1456, 3223175859, -49.98097610473633, -5.218095302581787, 115.43678283691406, -0.03437551, 0.027007742, 0.0043706894
1459, 3223225860, -49.84857177734375, -5.413125991821289, 115.4662857055664, -0.10461826, -0.026020372, -0.06413841
1465, 3223325862, -49.81789779663086, -5.816181182861328, 115.83088684082031, 0.2224734, 0.09902831, -0.081469536
1468, 3223375863, -49.50045394897461, -5.970281600952148, 115.98866271972656, -0.22921656, 0.020405447, 0.06844711
1474, 3223475865, -49.668487548828125, -6.174949645996094, 116.2099609375, 0.31757492, 0.17174053, 0.2127409
1478, 3223542533, -48.90736770629883, -6.2579665184021, 116.12950134277344, -0.60054725, -0.07406974, -0.10805225
1481, 3223592534, -49.47532272338867, -6.399967670440674, 116.11771392822266, 0.012113955, 0.0040929695, 0.12151432
1484, 3223642535, -49.694034576416016, -6.447244167327881, 115.94727325439453, 0.13810396, 0.13822483, 0.23085499
1487, 3223692536, -49.1217041015625, -6.261452674865723, 115.82733154296875, -0.4915564, -0.07090904, -0.03638172
1493, 3223792538, -49.50592041015625, -6.172450065612793, 115.9046630859375, 0.20186529, 0.14463763, 0.0024089813
1497, 3223859206, -49.46485137939453, -6.255419731140137, 115.85462951660156, -0.26288408, 0.022256358, 0.17295456
1500, 3223909207, -49.64379119873047, -6.327410697937012, 115.86897277832031, 0.040132422, 0.08020433, 0.04714012
1506, 3224009209, -49.60389709472656, -6.315782070159912, 115.84939575195312, -0.039852314, -0.19335935, -0.26865578
1509, 3224059210, -49.669952392578125, -6.265329837799072, 115.90896606445312, -0.042990595, 0.17197567, 0.04930687
1512, 3224109211, -49.5731315612793, -6.196193695068359, 115.87820434570312, 0.089696534, -0.006665715, -0.06447029
1515, 3224159212, -49.53010940551758, -6.180995941162109, 115.86854553222656, -0.08737233, -0.12522939, 0.1310358
1519, 3224225880, -49.623775482177734, -6.171894550323486, 115.8854751586914, 0.02035242, 0.03801117, 0.27243805
1522, 3224275881, -49.60929489135742, -6.191487789154053, 115.88207244873047, -0.030350825, 0.012507897, 0.01236248
1525, 3224325882, -49.606422424316406, -6.262485980987549, 115.90476989746094, -0.105516665, -0.009976389, 0.025014877
1528, 3224375883, -49.74247741699219, -6.330453395843506, 115.95575714111328, -0.05790091, 0.03309525, 0.010387421
1531, 3224425884, -49.68840408325195, -6.366456985473633, 116.04438018798828, -0.045339603, -0.35936698, -0.07169342
1534, 3224475885, -49.754608154296875, -6.475479602813721, 116.19269561767578, 0.1480751, 0.028805958, 0.026863098
1541, 3224592554, -49.31466293334961, -6.568624973297119, 116.37210845947266, -0.16369429, 0.103300534, 0.25590515
1550, 3224742557, -49.34312057495117, -6.833474636077881, 116.51580047607422, -0.019547382, 0.12402543, 0.014389038
1553, 3224792558, -49.315460205078125, -6.954538345336914, 116.57714080810547, -0.31123587, -0.07446032, -0.047261238
1556, 3224842559, -49.50670623779297, -7.096779823303223, 116.6689453125, 0.081653975, -0.116478525, 0.20087624
1563, 3224959228, -49.33528518676758, -7.330270290374756, 116.8968276977539, -0.1011661, -0.06055329, 0.04856491
1566, 3225009229, -49.440853118896484, -7.388188362121582, 116.97622680664062, 0.02589487, 0.06654087, 0.09187126
1569, 3225059230, -49.47490692138672, -7.464967250823975, 117.04436492919922, 0.004655663, -0.008505898, -0.13623714
1572, 3225109231, -49.34024429321289, -7.4889116287231445, 117.06707000732422, -0.12956074, -0.047030367, 0.038749695
1575, 3225159232, -49.38205337524414, -7.4917683601379395, 117.10816955566406, -0.048415255, -0.019378237, 0.0710392
1578, 3225209233, -49.25247573852539, -7.45885705947876, 117.09007263183594, 0.08077289, 0.0951384, 0.023543358
1582, 3225275901, -49.146942138671875, -7.383559226989746, 117.02459716796875, -0.28083843, 0.03790422, -0.004008293
1585, 3225325902, -49.37411117553711, -7.345196723937988, 116.9620590209961, 0.039753567, 0.008553897, 0.15348434
1588, 3225375903, -49.32582473754883, -7.283143520355225, 116.90949249267578, -0.07613131, 0.033795103, 0.056058884
1591, 3225425904, -49.30282974243164, -7.227671146392822, 116.90563201904297, -0.12778023, -0.03309344, -6.685257E-4
1594, 3225475905, -49.408546447753906, -7.200492858886719, 116.92765045166016, -0.093698084, -0.030408714, 0.076327324
1597, 3225525906, -49.53999710083008, -7.163880825042725, 116.93490600585938, 0.04240365, 0.04661899, -0.0065517426
1600, 3225575907, -49.49580383300781, -7.140828609466553, 116.90371704101562, -0.13150877, 0.021049947, 0.084643364
1604, 3225642575, -49.53939437866211, -7.059796333312988, 116.82273864746094, 0.14454281, 0.12549359, -0.13338566
1607, 3225692576, -49.669189453125, -6.933949947357178, 116.59715270996094, 0.08453863, 0.019505417, 0.09233189
1613, 3225792578, -49.78318405151367, -6.656219959259033, 115.54476928710938, 0.20847233, -0.004508033, -0.0024995804
1616, 3225842579, -49.56388854980469, -6.5158514976501465, 114.65961456298828, 0.10293576, -0.04941972, -0.10960293
1619, 3225892580, -49.91858673095703, -6.480099678039551, 113.68350982666016, 0.13863122, 0.092948586, 0.12694645
1622, 3225942581, -50.22484588623047, -6.387791156768799, 112.39673614501953, 0.41930404, 0.28772277, 0.09718132
1626, 3226009249, -50.73714065551758, -6.346141338348389, 110.59706115722656, 0.13574813, 0.049819697, 0.16745758
1629, 3226059250, -50.98310852050781, -6.304409503936768, 108.91508483886719, 0.39299577, -0.04521105, 0.27802277
1632, 3226109251, -50.92393493652344, -6.317708969116211, 106.99910736083984, 0.59208536, 0.3487551, 0.07791042
1635, 3226159252, -51.16634750366211, -6.404170513153076, 104.70716094970703, -0.43487173, -0.85945886, 0.09279728
1641, 3226259254, -51.637489318847656, -6.79621696472168, 99.83311462402344, -0.11567332, -0.4077243, 0.0061187744
1645, 3226325922, -52.3685302734375, -7.262656211853027, 96.15638732910156, -0.1718285, -0.11261175, 0.2597475
1651, 3226425924, -53.6221923828125, -8.353367805480957, 90.29104614257812, 0.6916978, 0.22837642, 0.58785534
1654, 3226475925, -53.016700744628906, -8.97244930267334, 87.12332916259766, -0.44898835, -0.24929495, -0.20018196
1660, 3226575927, -53.84115219116211, -10.084870338439941, 80.69474792480469, -0.100040376, 0.017360251, -0.2932272
1663, 3226625928, -54.35115432739258, -10.493429183959961, 77.43348693847656, -0.032169104, -0.17581148, 0.110551834
1667, 3226692596, -54.15128707885742, -10.737109184265137, 72.94036865234375, -0.5462682, -0.071335055, -0.4191885
1670, 3226742597, -54.85137939453125, -10.886333465576172, 69.86079406738281, 0.39924353, -0.11418696, 0.055020332
1673, 3226792598, -54.84563064575195, -10.968653678894043, 66.58247375488281, -0.3476656, 0.118881196, -0.06489372
1676, 3226842599, -54.39576721191406, -10.901938438415527, 63.56451416015625, -0.338294, -0.36081874, 0.12029457
1682, 3226942601, -52.91020584106445, -10.753495216369629, 58.195068359375, -0.41825724, 0.2954951, -0.5573473
1686, 3227009269, -53.881988525390625, -10.750173568725586, 54.79792404174805, -0.302293, 0.29188356, 0.07423687
1692, 3227109271, -53.625858306884766, -10.616737365722656, 50.35358428955078, -0.008027244, 0.104138486, 0.1755867
1695, 3227159272, -53.00975799560547, -10.69168758392334, 48.29251480102539, -0.113417625, 0.20737375, -0.26181602
1698, 3227209273, -53.646156311035156, -10.783143997192383, 46.355918884277344, -0.18198626, 0.37148994, -0.2169323
1701, 3227259274, -54.502933502197266, -10.861509323120117, 44.50392150878906, -0.058033574, -0.2851301, 0.27173996
1704, 3227309275, -54.12867736816406, -10.714620590209961, 42.73680114746094, 0.011510023, 0.26284474, -0.2341299
1708, 3227375943, -53.327823638916016, -10.338305473327637, 40.540218353271484, -0.008775342, 0.7705207, -0.32827187
1711, 3227425944, -53.431640625, -9.815044403076172, 38.99736404418945, -0.102277406, 0.049287513, -0.03743553
1714, 3227475945, -53.40968322753906, -9.286492347717285, 37.58366775512695, 0.259325, 0.30528137, -0.053079605
1717, 3227525946, -52.76720428466797, -8.844947814941406, 36.27635955810547, -0.028614128, 0.48425758, 0.25616646
1720, 3227575947, -52.683406829833984, -8.498239517211914, 34.97871780395508, -0.22114126, 0.34906018, -0.06824112
1726, 3227675949, -51.86934280395508, -7.856748580932617, 32.65983963012695, 0.08303093, 0.34736082, 0.02649784
1733, 3227792618, -51.794532775878906, -7.487811088562012, 30.485631942749023, -0.10510417, 0.2323605, -0.099095345
1736, 3227842619, -52.04911422729492, -7.266341209411621, 29.6732177734375, -0.13111113, 0.42398685, 0.4343872
1739, 3227892620, -51.87899398803711, -7.060083389282227, 29.024106979370117, -0.11830876, 0.2622558, 0.18988323
1742, 3227942621, -51.38295364379883, -6.933223247528076, 28.549739837646484, 0.049132284, 0.22690968, -0.039364815
1745, 3227992622, -51.473270416259766, -6.827902793884277, 28.10207176208496, 0.1288417, 0.4912142, -0.3301401
1749, 3228059290, -52.70377731323242, -6.677672863006592, 27.702678680419922, -0.0064589656, 0.22384062, 0.12186527
1752, 3228109291, -52.46797180175781, -6.501460552215576, 27.542383193969727, 0.1045161, 0.15196627, 0.23884296
1755, 3228159292, -51.82591247558594, -6.387048721313477, 27.453733444213867, 0.007497407, 0.51585895, -0.17766094
1758, 3228209293, -52.04006576538086, -6.277547836303711, 27.447784423828125, 0.11416159, 0.111987144, 0.17141819
1764, 3228309295, -52.3773193359375, -6.168917179107666, 27.41645050048828, 0.215668, 0.07399218, 0.29303074
1771, 3228425964, -52.041229248046875, -5.906166076660156, 27.30497169494629, 0.16658655, 0.057565764, 0.13650799
1774, 3228475965, -51.962745666503906, -5.78475284576416, 27.237985610961914, 0.2314169, 0.14663358, -0.03730297
1780, 3228575967, -52.23431396484375, -5.701406002044678, 27.06941795349121, 0.15814637, 0.12369878, 0.29708195
1783, 3228625968, -51.929080963134766, -5.738801002502441, 26.96259307861328, 0.08986372, 0.22086634, 0.087325096
1789, 3228725970, -51.85282897949219, -5.821944236755371, 26.77411460876465, 0.1394761, 0.19403785, 0.01521492
1793, 3228792638, -51.65678405761719, -5.899443626403809, 26.73659324645996, 0.08962892, 0.26556358, -0.20114136
1796, 3228842639, -51.617671966552734, -5.946084976196289, 26.73198699951172, 0.10834277, 0.15715218, 0.060317993
1799, 3228892640, -51.57119369506836, -5.932848930358887, 26.788406372070312, 0.12685455, 0.08982851, -0.19212341
1805, 3228992642, -51.48435974121094, -5.794341564178467, 26.71321678161621, 0.112772904, 0.05661248, 0.061175346
1808, 3229042643, -50.95998001098633, -5.835021495819092, 26.84343719482422, 0.14888176, 0.1699618, 0.03972721
1812, 3229109311, -50.895294189453125, -5.94827127456665, 27.034847259521484, 0.12596698, 0.2300592, -0.04162121
1815, 3229159312, -51.0709228515625, -5.942331314086914, 27.12535285949707, 0.1431016, -0.095075704, 0.16211224
1821, 3229259314, -51.50954818725586, -5.861025810241699, 27.225936889648438, 0.28991038, -0.19777812, 0.1347189
1824, 3229309315, -51.243492126464844, -5.910150527954102, 27.23684310913086, 0.28068098, 0.10871469, 0.044734955
1827, 3229359316, -50.81263732910156, -6.020631790161133, 27.192384719848633, 0.064037465, 0.25979045, 0.055971146
1830, 3229409317, -50.9473991394043, -6.130225658416748, 27.129796981811523, 0.02726985, 0.17500417, -0.023872375
1834, 3229475985, -51.29518508911133, -6.205803871154785, 27.04171371459961, 0.19458568, -0.12753157, 0.1236496
1837, 3229525986, -50.80017852783203, -6.165891647338867, 26.98263931274414, 0.060210925, 0.17811479, -0.1022892
1843, 3229625988, -50.816307067871094, -6.031898498535156, 26.837369918823242, 0.10717815, 0.05525531, 0.09334278
1846, 3229675989, -50.76982498168945, -5.9484639167785645, 26.83957290649414, 0.13105112, 0.20438538, 0.16960907
1849, 3229725990, -50.46660614013672, -5.88001823425293, 26.859235763549805, 0.1532435, 0.26041183, -0.052799225
1852, 3229775991, -50.51097869873047, -5.8420729637146, 26.910511016845703, 0.048596736, 0.16147014, 0.04014492
1856, 3229842659, -50.602195739746094, -5.827698707580566, 27.017425537109375, 0.09638963, 0.16961616, 0.12552261
1859, 3229892660, -50.44190216064453, -5.754223346710205, 27.14004898071289, 0.12896843, 0.15433547, -0.0151577
1862, 3229942661, -50.36616516113281, -5.699300765991211, 27.265460968017578, 0.09866153, 0.4049903, -0.11673641
1865, 3229992662, -50.564842224121094, -5.639009952545166, 27.426692962646484, 0.16307047, 0.08224696, 0.18472958
1868, 3230042663, -50.60746383666992, -5.575644493103027, 27.570730209350586, 0.1291811, 0.10314363, 0.05400276
1871, 3230092664, -50.5129280090332, -5.55211067199707, 27.71272850036621, 0.044984106, 0.22554179, 0.011855125
1878, 3230209333, -50.67134475708008, -5.53085994720459, 28.076446533203125, 0.14964662, 0.04975689, 0.09929943
1881, 3230259334, -50.62091827392578, -5.494827747344971, 28.213382720947266, 0.031005383, 0.27276358, 0.06554222
1884, 3230309335, -50.72321319580078, -5.448944091796875, 28.372295379638672, 0.104506165, 0.040312126, 0.07711792
1887, 3230359336, -50.7915153503418, -5.467353343963623, 28.49827003479004, 0.07107824, 0.07394457, 0.15499496
1893, 3230459338, -50.30777359008789, -5.590837001800537, 29.099040985107422, -0.41053227, 0.5390594, 0.075437546
1897, 3230526006, -50.26002883911133, -5.800172805786133, 30.233423233032227, -0.08881726, 0.37751576, -0.09843254
1900, 3230576007, -50.59735107421875, -5.954459190368652, 31.299028396606445, -0.172666, 0.57452196, 0.11129761
1903, 3230626008, -51.05553436279297, -6.192138671875, 32.530601501464844, -0.047560204, 0.29148504, 0.27044678
1906, 3230676009, -51.095523834228516, -6.5241546630859375, 33.86695098876953, -0.1771053, 0.33678105, 0.44046402
1909, 3230726010, -50.76438522338867, -6.929976463317871, 35.42414855957031, -0.082432024, 0.102411404, 0.09553909
1915, 3230826012, -50.819034576416016, -7.988853931427002, 38.92647171020508, -0.062430967, 0.118230306, 0.15075493
1919, 3230892680, -51.35862350463867, -8.947364807128906, 41.495845794677734, -0.17684904, -0.08225389, 0.27830124
1922, 3230942681, -51.08287048339844, -9.70973014831543, 43.57870864868164, 0.10739976, -0.040652312, 0.332942
1925, 3230992682, -50.67612075805664, -10.684898376464844, 45.72563171386719, -0.2880785, 0.17451489, 0.19123554
1928, 3231042683, -50.5886116027832, -11.665169715881348, 47.93894577026367, -0.103975765, -0.07945014, 0.2667265
1931, 3231092684, -50.56376647949219, -12.894286155700684, 50.244285583496094, 0.11981878, -0.123072036, 0.31058216
1934, 3231142685, -50.127437591552734, -14.251962661743164, 52.42145919799805, 0.09962509, -0.21531741, 0.28786469
1938, 3231209353, -49.58656692504883, -16.206653594970703, 55.351070404052734, 0.18098068, -0.2659042, 0.26354885
1941, 3231259354, -49.12666320800781, -17.73040199279785, 57.39229202270508, 0.18012708, -0.028460352, 0.11921692
1944, 3231309355, -49.05686950683594, -19.386709213256836, 59.22150421142578, 0.28602663, -0.37756547, 0.19897556
1947, 3231359356, -48.91354751586914, -21.147369384765625, 60.88154602050781, 0.4424669, -0.3113663, 0.2649479
1950, 3231409357, -48.42931365966797, -23.069217681884766, 62.20370864868164, 0.3827977, -0.32413045, 0.35466576
1956, 3231509359, -46.437984466552734, -27.685325622558594, 64.14009857177734, -0.027483823, -0.32705936, 0.45884514
1960, 3231576027, -45.710365295410156, -31.374303817749023, 65.05596923828125, 0.28240147, -0.48254716, 0.009348869
1963, 3231626028, -45.38138198852539, -34.218414306640625, 65.49056243896484, 0.11869946, -0.16538271, 0.10325146
1966, 3231676029, -44.98029327392578, -36.94794845581055, 65.86137390136719, -5.0737443E-5, 0.07404247, -0.28674126
1969, 3231726030, -44.83576202392578, -39.53044509887695, 66.19547271728516, 0.018392434, 0.1571295, -0.09832573
1972, 3231776031, -45.02372741699219, -41.833290100097656, 66.58735656738281, -0.007257913, 0.2731716, -0.55635834
1975, 3231826032, -45.46338653564453, -43.82905197143555, 67.04305267333984, 0.11218917, 0.14292432, -0.23218632
1982, 3231942701, -46.32953643798828, -47.54877853393555, 68.49862670898438, 0.12076628, 0.15848309, -0.21540833
1985, 3231992702, -46.58486557006836, -48.84981918334961, 69.22722625732422, -0.15045282, 0.16419055, -0.05416107
1988, 3232042703, -46.73097229003906, -50.09101104736328, 70.02973175048828, -0.091399364, 0.09218205, 0.071061134
1991, 3232092704, -46.741943359375, -51.292354583740234, 70.76496887207031, 0.02372009, 0.1489116, 0.16031647
1994, 3232142705, -46.914268493652344, -52.47443771362305, 71.57267761230469, -0.1191789, 0.13636766, 0.045850754
1997, 3232192706, -47.77445602416992, -53.65669631958008, 72.37409973144531, -0.14777157, -0.026505955, 0.28989697
2001, 3232259374, -48.55562973022461, -55.29389572143555, 73.81703186035156, -0.043737017, 0.06982631, -0.0046863556
2004, 3232309375, -48.952056884765625, -56.478790283203125, 74.8244400024414, -0.16722837, 0.24904601, -0.20003796
2007, 3232359376, -49.88601303100586, -57.61520767211914, 76.10494232177734, 0.26999873, 0.02304554, -0.022060394
2010, 3232409377, -50.15717315673828, -58.61306381225586, 77.1980209350586, 0.087415025, 0.32047492, -0.14473915
2016, 3232509379, -50.64207458496094, -60.02289581298828, 78.70711517333984, 0.22269312, 0.035986464, -0.21016884
2019, 3232559380, -50.773048400878906, -60.44640350341797, 79.35576629638672, -0.041249316, 0.13497673, -0.24260998
2023, 3232626048, -50.65922927856445, -60.798580169677734, 80.12627410888672, 0.29160574, 0.20811035, -0.2571745
2026, 3232676049, -50.27478790283203, -60.90022659301758, 80.2199478149414, -0.23525901, 0.118458964, 0.2001009
2029, 3232726050, -50.32646560668945, -61.037078857421875, 80.34188079833984, 0.023256076, 0.020366864, 0.2734928
2032, 3232776051, -49.9711799621582, -61.10670471191406, 80.38921356201172, -0.122703694, -0.25387308, 0.09663582
2035, 3232826052, -50.01640319824219, -61.20253372192383, 80.55834197998047, -0.10469883, 0.24315058, 0.13887882
2038, 3232876053, -50.24360656738281, -61.23040008544922, 80.60979461669922, 0.2887251, -0.30357066, 0.048666954
2041, 3232926054, -49.86861038208008, -61.28899383544922, 80.54874420166016, 0.04907227, 0.042442385, 0.26659012
2045, 3232992722, -49.677764892578125, -61.43507385253906, 80.27118682861328, 0.16138977, -0.14170772, 0.4001274
2051, 3233092724, -49.128509521484375, -61.83515167236328, 79.71907806396484, 0.23711953, -0.11255262, 0.1873684
2054, 3233142725, -48.21986389160156, -62.11582565307617, 79.35017395019531, -0.21128127, 0.053711675, 0.035974503
2057, 3233192726, -48.19009780883789, -62.405006408691406, 79.09331512451172, -0.12937869, 0.17765695, -0.027593613
2060, 3233242727, -48.326595306396484, -62.627296447753906, 78.69072723388672, 0.10244761, -0.17852935, 0.26945114
2063, 3233292728, -47.83152770996094, -62.805091857910156, 78.34141540527344, -0.4482825, 0.051441368, 0.11498833
2067, 3233359396, -47.33580017089844, -63.078285217285156, 78.08071899414062, 0.19725287, 0.06575108, 0.16676044
2070, 3233409397, -46.98124694824219, -63.20164108276367, 77.77075958251953, -0.3714374, 0.19250673, 0.0033521652
2073, 3233459398, -47.17523193359375, -63.37615203857422, 77.69746398925781, 0.14921322, -0.14961971, 0.0513525
2076, 3233509399, -46.91001510620117, -63.397090911865234, 77.52702331542969, -0.017645288, 0.40370172, 0.18226433
2079, 3233559400, -46.872901916503906, -63.395931243896484, 77.33113861083984, -0.42322668, -0.20523033, -0.015462875
2086, 3233676069, -46.99215316772461, -63.358009338378906, 77.37142944335938, -0.049419608, -0.07511452, 0.091537476
2089, 3233726070, -46.71631622314453, -63.42220687866211, 77.31019592285156, -0.12151192, 0.023771357, 0.0595026
2092, 3233776071, -46.48723602294922, -63.53875732421875, 77.26202392578125, -0.04729266, -0.06546558, 0.20799923
2098, 3233876073, -46.34842300415039, -63.71421813964844, 77.36837768554688, -0.0050330646, 0.012920166, 0.023024559
2101, 3233926074, -46.322078704833984, -63.76274490356445, 77.42564392089844, -0.13210331, -0.016482404, 0.02368164
2108, 3234042743, -46.41942596435547, -63.92259979248047, 77.86105346679688, -0.025084412, 0.12915392, 0.09420586
2111, 3234092744, -46.08924102783203, -63.92459487915039, 77.8595962524414, 0.16984749, 0.013671924, 0.17010689
2117, 3234192746, -46.09174346923828, -64.00003814697266, 78.08448028564453, 0.0063128998, 0.03840095, 0.13974953
2120, 3234242747, -46.14978790283203, -63.96793746948242, 78.46599578857422, 0.0065462473, 0.07331773, 0.11102772
2123, 3234292748, -46.406646728515625, -63.81557083129883, 79.13739013671875, -0.30588642, -0.0755243, -0.0830574
2127, 3234359416, -47.599769592285156, -63.53214645385742, 80.09226989746094, -0.08297919, -0.04268117, 0.19585133
2130, 3234409417, -48.11045455932617, -63.44645309448242, 80.82865142822266, 0.117997855, -0.2299721, 0.27309704
2133, 3234459418, -48.03853225708008, -63.44535446166992, 81.32122802734375, -0.09852719, -0.23295361, 0.21136475
2136, 3234509419, -48.067203521728516, -63.593502044677734, 81.74373626708984, 0.07748121, -0.041529655, 6.990433E-4
2139, 3234559420, -48.10173797607422, -63.6931266784668, 81.90158081054688, 0.050037846, 0.0099385595, 0.17293453
2142, 3234609421, -48.546627044677734, -63.70408248901367, 82.22843933105469, -0.32616398, -0.2095668, 0.038575172
2149, 3234726090, -49.01279067993164, -63.775390625, 83.15206909179688, -0.059889402, -0.28279966, -0.04884529
2152, 3234776091, -49.0692253112793, -63.868499755859375, 83.27452087402344, 0.074031964, -0.07953024, 0.1410551
2155, 3234826092, -49.275203704833984, -64.0355224609375, 83.36311340332031, 0.059299327, -0.1348875, 0.26731968
2161, 3234926094, -49.04090118408203, -64.4745101928711, 83.37674713134766, -0.13231923, 0.045138776, 0.0862875
2164, 3234976095, -48.91131591796875, -64.67594146728516, 83.2679443359375, -0.06377763, 0.16418764, -0.09981918
2167, 3235026096, -48.82197570800781, -64.84380340576172, 83.15725708007812, -0.17309469, 0.005419351, -0.023374557
2171, 3235092764, -48.92839431762695, -64.8628921508789, 83.15470123291016, -0.1954822, 0.20115909, -0.04423523
2174, 3235142765, -49.424163818359375, -64.73846435546875, 83.25536346435547, 0.03437987, 0.043841116, 0.14341545
2177, 3235192766, -49.252830505371094, -64.55171966552734, 83.27995300292969, 0.120221294, -0.07261525, 0.28175068
2180, 3235242767, -48.934383392333984, -64.39763641357422, 83.28752899169922, -0.20999177, 0.19044416, 0.05278015
2183, 3235292768, -48.85940170288086, -64.34719848632812, 83.33932495117188, 0.088466875, -0.022054248, 0.12180042
2186, 3235342769, -48.61585998535156, -64.34101104736328, 83.28520965576172, -0.14325616, -0.026025541, 0.1850977
2190, 3235409437, -48.28995895385742, -64.1907958984375, 83.2842025756836, -0.26589057, 0.18301967, -0.012350082
2196, 3235509439, -47.97674560546875, -63.802608489990234, 83.50398254394531, -0.086859815, -0.27277997, 0.14762211
2199, 3235559440, -47.765010833740234, -63.659393310546875, 83.69805908203125, -0.051888548, -0.17936166, 0.13255692
2202, 3235609441, -47.929786682128906, -63.57027816772461, 83.86381530761719, -0.19303472, -0.12565191, 0.05559635
2205, 3235659442, -48.107975006103516, -63.54438400268555, 83.97180938720703, 0.20316255, -0.27614576, 0.17623043
2208, 3235709443, -47.86790084838867, -63.51921081542969, 83.93866729736328, -0.15573846, 0.00769421, -0.014447212
2215, 3235826112, -47.69497299194336, -63.42293930053711, 83.74910736083984, -0.043977067, -0.08658601, 0.08799267
2218, 3235876113, -47.700294494628906, -63.3772087097168, 83.82917022705078, -0.15123735, -0.0079219695, 0.22089958
2221, 3235926114, -47.729549407958984, -63.323974609375, 84.07516479492188, -0.029758515, -0.13643217, 0.090722084
2224, 3235976115, -47.83797073364258, -63.28298568725586, 84.37969207763672, -0.13122267, 0.07755246, 0.045345306
2227, 3236026116, -48.280601501464844, -63.23744201660156, 84.79749298095703, -0.066395864, 0.017000396, -0.028963089
2237, 3236192786, -48.446311950683594, -62.927146911621094, 85.38385772705078, 0.02423685, -0.23916945, 0.16203785
2240, 3236242787, -48.38054656982422, -62.818424224853516, 85.41248321533203, -0.011804166, 0.0054572923, 0.15770721
2243, 3236292788, -48.51885223388672, -62.76826477050781, 85.37678527832031, -0.10790714, -0.13483086, 0.091049194
2246, 3236342789, -48.62325668334961, -62.721778869628906, 85.37672424316406, 0.05907358, -0.13012905, 0.06470108
2249, 3236392790, -48.421142578125, -62.643470764160156, 85.21813201904297, -0.23210524, -0.045611396, 0.07724476
2256, 3236509459, -48.8849983215332, -62.518367767333984, 85.21234893798828, -0.18228331, 0.022694388, 0.13801956
2262, 3236609461, -49.66010665893555, -62.54165267944336, 85.4907455444336, 0.2030119, -0.2078208, 0.3450117
2265, 3236659462, -49.09668731689453, -62.56468200683594, 85.47128295898438, -0.18395787, 0.15254603, -0.10583782
2268, 3236709463, -49.391841888427734, -62.565040588378906, 85.52742767333984, -0.21788222, 0.14445212, 0.10311985
2271, 3236759464, -49.72786331176758, -62.523921966552734, 85.53620147705078, 0.14727806, -0.13462266, 0.06651974
2278, 3236876133, -49.367671966552734, -62.24598693847656, 85.5068359375, -0.15001966, 0.10163684, 0.21399593
2281, 3236926134, -49.78828811645508, -62.05781555175781, 85.56919860839844, -0.073462896, -0.0701801, 0.022494316
2284, 3236976135, -49.962345123291016, -61.8659553527832, 85.60444641113281, 0.028280647, -0.078218944, 0.18208694
2287, 3237026136, -49.855812072753906, -61.7061767578125, 85.56975555419922, -0.19862837, -0.01742616, 0.08928776
2290, 3237076137, -50.11763000488281, -61.5710563659668, 85.66236114501953, 0.042450476, -0.0691658, 0.104444504
2293, 3237126138, -50.13411331176758, -61.4502067565918, 85.69351959228516, 0.022945393, -0.08311902, 0.03354931
2297, 3237192806, -50.185184478759766, -61.191287994384766, 85.7391357421875, -0.23618928, 0.16758263, 0.11005306
2300, 3237242807, -50.64983367919922, -60.9572868347168, 85.88570404052734, 0.021643696, -0.112824135, -0.005763054
2303, 3237292808, -50.800052642822266, -60.62259292602539, 86.10993194580078, -0.023277534, 0.14715095, 0.09039593
2306, 3237342809, -50.96315002441406, -60.216033935546875, 86.40486145019531, -0.35123855, 0.24125645, 0.12111378
2309, 3237392810, -51.5429573059082, -59.73637771606445, 87.07665252685547, -0.13057671, -0.031101158, -0.06884956
2312, 3237442811, -51.919960021972656, -59.107147216796875, 87.83354949951172, -0.13124055, 0.24489832, -0.05104351
2315, 3237492812, -52.631011962890625, -58.36250686645508, 88.69239807128906, -0.3025793, 0.25380808, -0.09719372
2322, 3237609481, -55.08816909790039, -56.15513610839844, 91.16136169433594, -0.17617396, 0.03842246, 0.081246376
2325, 3237659482, -55.71270751953125, -54.96441650390625, 92.42005920410156, -0.16375409, -0.07307587, -0.07182789
2328, 3237709483, -56.137962341308594, -53.646915435791016, 93.86978149414062, -0.36449242, 0.28875396, -0.20928097
2331, 3237759484, -57.05052947998047, -51.99861526489258, 95.52225494384766, -0.12985075, -0.118862614, -0.36746216
2334, 3237809485, -57.314453125, -50.13148498535156, 97.23627471923828, -0.6582953, 0.49948162, -0.048986435
2338, 3237876153, -57.66667175292969, -46.96363830566406, 99.8489761352539, 0.23707862, -0.21702018, -0.051974297
2344, 3237976155, -57.04063415527344, -41.7608757019043, 103.22982788085938, -0.054694068, -0.08490485, -0.06343937
2347, 3238026156, -56.57090377807617, -39.0645637512207, 104.79734802246094, -0.0568684, -0.15713915, 0.36493587
2350, 3238076157, -55.74259567260742, -36.48163986206055, 106.18661499023438, 0.10586803, -0.118730165, -0.04199791
2353, 3238126158, -55.08745574951172, -34.02477264404297, 107.23062133789062, 0.027558701, -0.35225296, -0.07492924
2356, 3238176159, -55.366947174072266, -31.851314544677734, 108.28074645996094, -0.27194285, -0.12404023, 0.40972233
2360, 3238242827, -55.38900375366211, -28.75142478942871, 109.58541107177734, 0.14440256, -0.8493057, 0.094745636
2363, 3238292828, -54.58729553222656, -26.41021728515625, 110.55646514892578, -0.34033334, 0.08678346, -0.20329952
2366, 3238342829, -54.63555145263672, -24.165250778198242, 111.60399627685547, 0.17984948, -0.26562548, -0.44093323
2369, 3238392830, -55.47382736206055, -21.90329360961914, 112.5650405883789, -0.2174723, 0.055966415, -0.23181629
2372, 3238442831, -55.79121398925781, -19.42025375366211, 113.38832092285156, 0.33848557, -0.32671073, 0.4368372
2379, 3238559500, -53.36712646484375, -14.058210372924805, 114.81686401367188, 0.06338827, 0.07550961, -0.22615147
2382, 3238609501, -52.54100036621094, -11.732002258300781, 115.12569427490234, 0.01144744, -0.38200766, 0.6057987
2385, 3238659502, -52.09742736816406, -9.76364517211914, 115.35167694091797, 0.3313441, 0.04847767, 0.4211445
2388, 3238709503, -50.92565155029297, -7.7515482902526855, 115.1464614868164, 0.16874066, -0.31368148, 0.073041916
2391, 3238759504, -50.85713577270508, -6.092380046844482, 114.96149444580078, -0.35109347, 0.045053452, 0.33410358
2394, 3238809505, -51.50566482543945, -4.4689040184021, 114.58036804199219, 0.35781765, -0.23517954, 0.44921112
2397, 3238859506, -51.69615173339844, -3.284177303314209, 114.35197448730469, 0.073936075, -0.11226318, 0.23740101
2401, 3238926174, -51.501834869384766, -2.060886859893799, 114.03057861328125, 0.05009015, 0.035405345, 0.5047722
2404, 3238976175, -51.11283493041992, -1.437029480934143, 113.78983306884766, -0.21111737, -0.056795537, 0.32800484
2407, 3239026176, -51.43450164794922, -0.9327070713043213, 113.6726303100586, -0.2978499, -0.2754272, 0.015950203
2413, 3239126178, -52.33339309692383, -0.42805880308151245, 113.4939193725586, 0.018102426, -0.1417213, 0.23942947
2416, 3239176179, -52.05834197998047, -0.2003759741783142, 113.41483306884766, -0.09771919, -0.36071885, 0.1760788
2419, 3239226180, -51.584449768066406, -0.115230493247509, 113.37458801269531, -0.0069520352, -0.12159518, 0.032366753
2423, 3239292848, -51.613677978515625, 1.2294341286178678E-4, 113.32559967041016, -0.008554556, -0.22102194, -0.061545372
2426, 3239342849, -52.21354675292969, -0.03296932950615883, 113.347900390625, -0.14118822, -0.11023838, 0.20272827
2429, 3239392850, -52.287044525146484, 0.019421644508838654, 113.36123657226562, 0.08036196, -0.13523182, 0.2656498
2432, 3239442851, -51.7842903137207, -0.07761317491531372, 113.3317642211914, -0.020054141, -0.10627091, -0.10763264
2435, 3239492852, -51.609153747558594, -0.12990859150886536, 113.28231048583984, -0.13172178, -0.16313238, -0.12768269
2438, 3239542853, -52.1275749206543, -0.19188769161701202, 113.33570098876953, -0.1546628, -0.08316012, -0.012489319
2441, 3239592854, -52.568511962890625, -0.18239879608154297, 113.40198516845703, -0.0024919459, 0.084385976, 0.3419695
2448, 3239709523, -51.702754974365234, -0.20574282109737396, 113.3773193359375, -0.24220769, -0.1278873, -0.13391018
2451, 3239759524, -52.24138259887695, -0.22637015581130981, 113.45207214355469, 0.0437226, -0.016271185, 0.07188225
2454, 3239809525, -52.29156494140625, -0.1931581199169159, 113.51107788085938, 0.0325417, 0.08391559, 0.23227978
2457, 3239859526, -52.008060455322266, -0.21238352358341217, 113.51460266113281, -0.08241649, -0.1172017, -0.09531975
2460, 3239909527, -51.92380142211914, -0.27534136176109314, 113.57058715820312, -0.19311742, -0.10762652, 0.09879112
2464, 3239976195, -52.33211898803711, -0.43016767501831055, 113.5949478149414, 0.20868522, 0.026864916, 0.2917118
2470, 3240076197, -52.02081298828125, -0.8855010271072388, 113.36775970458984, 0.012922513, -0.21262206, -0.20503616
2473, 3240126198, -52.25407028198242, -1.0132994651794434, 113.22540283203125, -0.1237941, -0.09709984, 0.020490646
2476, 3240176199, -52.239200592041016, -0.9773297309875488, 113.06915283203125, 0.019109799, 0.025245676, -0.10162544
2479, 3240226200, -51.91598129272461, -0.9112420082092285, 112.9220199584961, -0.19871289, -0.06119015, -0.22975636
2482, 3240276201, -51.95623016357422, -0.732098400592804, 112.80590057373047, -0.09401346, -0.01916959, -0.12953854
2486, 3240342869, -52.281585693359375, -0.49684104323387146, 112.5293197631836, 0.11263209, 0.08667084, 0.099383354
2489, 3240392870, -52.13805389404297, -0.32214418053627014, 112.21686553955078, 0.098923035, -0.06554249, 0.24472618
2492, 3240442871, -52.00294876098633, -0.14771156013011932, 111.56047821044922, 0.1997723, 0.28375137, 0.074913025
2495, 3240492872, -52.245941162109375, -0.08236869424581528, 110.63700103759766, -0.08759495, -0.41017923, 0.16404343
2498, 3240542873, -52.928428649902344, -0.07516113668680191, 109.67891693115234, 0.538494, 0.060449302, 0.13961697
2501, 3240592874, -52.5362434387207, -0.005462443921715021, 108.38805389404297, -0.09745474, -0.20749776, 0.08786583
2504, 3240642875, -52.38904571533203, -0.0035124248825013638, 107.1055679321289, 0.15481849, -0.06929438, -0.286829
2508, 3240709543, -52.711849212646484, 0.04983477666974068, 105.05571746826172, 0.29341304, 0.03459232, -0.080895424
2514, 3240809545, -54.438724517822266, 0.08030255883932114, 100.63861083984375, 1.0224811, 0.47464573, 0.39713764
2517, 3240859546, -54.40739440917969, -0.025423675775527954, 97.35813903808594, 0.29624653, -0.7535672, 0.123716354
2520, 3240909547, -54.395591735839844, -0.05615099146962166, 93.86550903320312, 1.1016321, 0.061632134, 0.3857336
2523, 3240959548, -54.16826248168945, -0.20604336261749268, 89.75301361083984, -0.046239465, -0.58838665, -0.13789463
2527, 3241026216, -54.58425521850586, -0.4237232208251953, 83.81229400634766, 0.7297857, -0.31760073, 0.13437176
2530, 3241076217, -54.94886016845703, -0.6277735233306885, 78.99205017089844, 0.3170138, -0.26455262, -0.11345291
2533, 3241126218, -54.9781608581543, -0.46035465598106384, 73.49445343017578, 0.41937244, -0.13099201, 0.4162817
2536, 3241176219, -54.91265106201172, -0.2292729914188385, 67.85562896728516, -0.2826678, -0.81342626, -0.31465435
2539, 3241226220, -54.48564910888672, -0.19990980625152588, 62.710933685302734, -0.5492545, -0.4686481, -0.041492462
2542, 3241276221, -54.252193450927734, -0.2023618370294571, 57.92455291748047, 0.06008721, -0.25960582, -0.22656918
2549, 3241392890, -54.24226379394531, -0.5340141654014587, 47.43721389770508, -0.6552597, 0.07477, 0.1528759
2552, 3241442891, -54.60617446899414, -0.7837972640991211, 43.57333755493164, -0.36951765, -0.4642668, 0.068063736
2555, 3241492892, -54.03289794921875, -0.9317556619644165, 40.059593200683594, -0.4106038, 0.4724865, 0.033388138
2558, 3241542893, -53.699947357177734, -1.0555535554885864, 36.78191375732422, -0.7984842, 0.44283706, -0.02725792
2561, 3241592894, -54.4395866394043, -1.0147783756256104, 33.957820892333984, -0.48197976, 0.35487086, -0.5455303
2564, 3241642895, -54.89461898803711, -0.9403458833694458, 31.481653213500977, -0.146789, 0.28399512, 0.301692
2571, 3241759564, -55.01183319091797, -0.5974338054656982, 27.027843475341797, -0.15958428, 0.54362196, -0.15758896
2574, 3241809565, -54.774993896484375, -0.22407007217407227, 25.711383819580078, 0.062070552, 0.63080406, 0.34499264
2577, 3241859566, -54.116180419921875, 0.09487307071685791, 24.776634216308594, -0.21131685, 0.003371693, -0.5288
2580, 3241909567, -52.893699645996094, 0.48713672161102295, 24.237180709838867, 0.1970208, 0.047229182, 0.20604515
2586, 3242009569, -52.598514556884766, 1.2420979738235474, 23.93952178955078, 0.1197721, 0.15518907, 0.42719078
2590, 3242076237, -52.60544967651367, 1.4195884466171265, 23.789743423461914, 0.19734043, 0.13355301, 0.46998882
2593, 3242126238, -51.935890197753906, 1.4540854692459106, 23.804889678955078, 0.049804386, -0.01216961, -0.09482002
2596, 3242176239, -51.73640060424805, 1.5116322040557861, 23.731393814086914, 0.09105745, 0.37861285, -0.1427412
2599, 3242226240, -52.18342590332031, 1.5734918117523193, 23.76386833190918, 0.12506114, 0.031772815, 0.09630489
2602, 3242276241, -52.04412078857422, 1.7306488752365112, 23.724853515625, 0.13561964, 0.1946263, 0.14896297
2605, 3242326242, -51.88569259643555, 1.8082667589187622, 23.778331756591797, 0.1978217, 0.19620503, 0.05638504
2608, 3242376243, -51.64230728149414, 1.8732774257659912, 23.799726486206055, 0.19992569, 0.08716111, 0.027747154
2612, 3242442911, -51.618560791015625, 1.976111888885498, 23.877004623413086, 0.071329184, 0.04971733, 0.02286148
2615, 3242492912, -51.51114273071289, 2.0493271350860596, 23.92452049255371, 0.17436525, 0.041607384, -0.3078642
2621, 3242592914, -51.61962890625, 2.321030616760254, 24.07245635986328, -0.045220137, 0.27165967, -0.09503555
2624, 3242642915, -51.68927001953125, 2.4037535190582275, 24.188623428344727, 0.40261185, -0.14877515, 0.30470276
2627, 3242692916, -51.04375457763672, 2.494725227355957, 24.264352798461914, 0.030624349, 0.092113264, -0.1803112
2630, 3242742917, -50.993385314941406, 2.5272107124328613, 24.31853485107422, 0.036539003, 0.34425554, 0.18684483
2634, 3242809585, -50.8995246887207, 2.5582611560821533, 24.621387481689453, 0.18994215, 0.078360066, 0.03670311
2637, 3242859586, -50.65454864501953, 2.570899486541748, 24.77559471130371, 0.039720878, 0.2283339, -0.02695465
2640, 3242909587, -50.848880767822266, 2.550811767578125, 24.90546989440918, 0.1888947, 0.17503032, -0.07428551
2643, 3242959588, -51.06468200683594, 2.6004278659820557, 24.99999237060547, 0.27695462, -0.117262945, -0.021566391
2646, 3243009589, -50.91667175292969, 2.647273063659668, 25.004077911376953, 0.17716973, 0.090056725, -0.09942913
2649, 3243059590, -50.680755615234375, 2.7940244674682617, 25.00384521484375, 0.12209792, 0.17852248, -0.12177849
2653, 3243126258, -50.9208984375, 2.9718077182769775, 25.01026725769043, 0.2772475, 0.049249515, 0.058063507
2656, 3243176259, -50.881072998046875, 3.08788800239563, 25.0051212310791, 0.06366107, 0.0756864, -0.054769516
2659, 3243226260, -50.99945068359375, 3.2062056064605713, 25.03306770324707, 0.10516821, 0.1328827, 0.11617184
2662, 3243276261, -51.19590377807617, 3.329371213912964, 25.075315475463867, 0.080898, 0.2820481, -0.16465855
2665, 3243326262, -51.369361877441406, 3.4965553283691406, 25.130115509033203, 0.25797448, -0.011128039, -0.025301933
2668, 3243376263, -51.27852249145508, 3.7624802589416504, 25.217103958129883, 0.023857437, 0.21623671, -0.33217144
2675, 3243492932, -51.99228286743164, 5.498136520385742, 25.465930938720703, 0.09543744, 0.0020317328, -0.70229626
2678, 3243542933, -52.07215881347656, 6.98917293548584, 25.54236602783203, 0.24072969, -0.014128924, -0.77945614
2681, 3243592934, -51.894691467285156, 8.973820686340332, 25.5733642578125, -0.0492855, -0.2743664, -0.9938793
2687, 3243692936, -51.75700378417969, 14.454678535461426, 25.502811431884766, -0.07696676, -0.43179798, -0.38913918
2690, 3243742937, -51.430259704589844, 17.760770797729492, 25.35553550720215, -0.23135896, -0.13402283, -0.8569813
2693, 3243792938, -51.7668571472168, 21.480669021606445, 25.204954147338867, -0.15961982, 0.2134969, -0.049693108
2697, 3243859606, -52.83092498779297, 26.58260154724121, 25.10564613342285, -0.3237764, -0.092394665, -0.21255684
2700, 3243909607, -54.104496002197266, 30.524890899658203, 25.014385223388672, -0.10294817, -0.51911557, 0.2845106
2703, 3243959608, -55.81755447387695, 34.49453353881836, 24.57598876953125, -0.04027167, 0.020048218, -0.11390686
2706, 3244009609, -57.74415588378906, 38.361839294433594, 23.811954498291016, 0.28090137, -0.24805737, 0.5405636
2712, 3244109611, -61.73196792602539, 45.89491653442383, 21.910974502563477, -0.06820062, 0.38055518, 0.14470959
2716, 3244176279, -64.7765121459961, 50.68044662475586, 20.616809844970703, 0.3438756, -0.09439757, 0.99600124
2719, 3244226280, -66.90148162841797, 53.78166198730469, 19.520872116088867, 0.28737485, 0.14825703, 0.17724133
2725, 3244326282, -70.78079223632812, 59.36854553222656, 16.81847381591797, 0.2808198, 0.17267172, 0.30048752
2728, 3244376283, -73.17436981201172, 61.58505630493164, 15.134881019592285, 0.018627122, -0.42301348, 0.25883007
2731, 3244426284, -76.2878646850586, 63.804561614990234, 12.761409759521484, 0.24067451, 0.3853826, 0.09407234
2734, 3244476285, -79.89439392089844, 65.52904510498047, 10.44393539428711, -0.19483759, 0.10804303, -0.22147083
2738, 3244542953, -83.01581573486328, 68.01256561279297, 7.7804036140441895, 0.9945812, 0.38568547, 0.009666443
2741, 3244592954, -85.34305572509766, 69.34708404541016, 5.643472671508789, 0.07412248, 0.21229999, -0.017433167
2744, 3244642955, -87.53384399414062, 70.26042175292969, 4.000720977783203, 0.87747765, 0.12890998, 0.1301632
2747, 3244692956, -88.55471801757812, 70.8111343383789, 2.7321550846099854, 0.7114498, 0.1389016, 0.079491615
2750, 3244742957, -88.92343139648438, 71.10214233398438, 1.7753573656082153, 0.022106325, 0.16750419, 0.12572193
2753, 3244792958, -89.41336822509766, 71.12335205078125, 1.2703077793121338, 0.18252112, 0.052924067, 0.042222977
2760, 3244909627, -90.44528198242188, 71.3376693725586, 0.23983599245548248, 0.084871896, 0.21549755, -0.26469326
2763, 3244959628, -91.49713134765625, 71.6165771484375, -0.47949641942977905, -0.2557719, -0.07496401, -0.39731693
2766, 3245009629, -92.67017364501953, 72.0064468383789, -1.4691472053527832, 0.16529477, 0.107406914, -0.27961254
2769, 3245059630, -93.95667266845703, 72.38175964355469, -2.2398200035095215, -0.080370344, 0.13467237, -0.0811491
2772, 3245109631, -95.39674377441406, 72.83351135253906, -2.885341167449951, 0.1138423, 0.19146566, 0.023371696
2775, 3245159632, -96.2000503540039, 73.2339859008789, -3.1501216888427734, 0.42938402, -0.009053169, -0.10374355
2779, 3245226300, -97.20548248291016, 73.41490173339844, -3.3629040718078613, -0.03261702, 0.043326423, 0.070539474
2782, 3245276301, -98.02203369140625, 73.51930236816406, -3.409539222717285, -0.0052190274, 0.10045678, 0.024270058
2785, 3245326302, -98.51073455810547, 73.61393737792969, -3.243602991104126, -0.057072468, -0.13718286, -0.093141556
2788, 3245376303, -99.02647399902344, 73.83248901367188, -3.2636470794677734, -0.040323526, 0.16385421, -0.19424343
2794, 3245476305, -99.93641662597656, 74.0789794921875, -3.273691415786743, 0.3044841, 0.10843194, 0.03928852
2797, 3245526306, -99.98851776123047, 74.0653305053711, -2.969034194946289, -0.012151059, -0.040519547, -0.05908394
2801, 3245592974, -100.1302719116211, 74.03968048095703, -2.5115339756011963, -0.04405038, -0.05656107, -0.19640064
2804, 3245642975, -100.04261016845703, 74.02999877929688, -2.1342360973358154, 0.1578806, -0.121536285, 0.019752502
2807, 3245692976, -100.1067886352539, 74.02009582519531, -2.021982192993164, -0.064989075, -0.03938969, -0.1982727
2810, 3245742977, -100.374267578125, 74.04397583007812, -2.069408416748047, -0.06273115, -0.030151898, -0.1633892
2813, 3245792978, -100.56279754638672, 74.14276885986328, -2.183100938796997, 0.09847735, 0.0652897, -0.19842243
2816, 3245842979, -100.6625747680664, 74.21399688720703, -2.1476104259490967, 0.11466014, -0.13704048, -0.11856651
2819, 3245892980, -100.80816650390625, 74.21952056884766, -2.1308743953704834, -0.06501098, 0.012719675, -0.029168129
2823, 3245959648, -100.949462890625, 74.32469177246094, -2.0976788997650146, 0.3503769, -0.07231471, -0.25442696
2826, 3246009649, -101.08845520019531, 74.37672424316406, -2.4152822494506836, -0.12981655, -0.022602525, -0.06890774
2829, 3246059650, -101.38443756103516, 74.37619018554688, -2.619105577468872, -0.078946784, 0.075282514, -0.15509605
2832, 3246109651, -101.56485748291016, 74.46556091308594, -2.8167777061462402, 0.25248492, -0.069326565, -0.19484425
2835, 3246159652, -101.66057586669922, 74.47449493408203, -2.9738175868988037, -0.011682799, -0.05229041, -0.09260559
2838, 3246209653, -101.77591705322266, 74.48680877685547, -3.267101526260376, 0.097828716, 0.07805028, -0.16837692
2842, 3246276321, -101.76956939697266, 74.38362884521484, -3.0568416118621826, -0.09087143, 0.018031238, -0.11836338
2845, 3246326322, -101.80375671386719, 74.36412048339844, -2.9449572563171387, 0.11911028, -0.093339235, -0.1499834
2848, 3246376323, -101.67131805419922, 74.38211059570312, -2.991316318511963, 0.030682687, 0.051315047, -0.20518303
2851, 3246426324, -101.56719970703125, 74.42085266113281, -2.7796099185943604, -0.17825359, -0.086221464, -0.21071911
2857, 3246526326, -101.95768737792969, 74.54105377197266, -2.986088752746582, -0.13460219, -0.058858786, -0.19737816
2860, 3246576327, -102.1844253540039, 74.61129760742188, -3.194361448287964, 0.27111942, -0.07380375, -0.10465431
2864, 3246642995, -102.47930908203125, 74.6358871459961, -3.502833604812622, -0.09721093, 0.09927462, -0.15050411
2867, 3246692996, -102.86125183105469, 74.64303588867188, -3.722201347351074, -0.013322266, -0.110285535, -0.15697956
2870, 3246742997, -103.29420471191406, 74.67796325683594, -4.204591274261475, 0.1895446, -0.063445486, -0.15825367
2873, 3246792998, -103.57500457763672, 74.64478302001953, -4.55237340927124, 0.0060574245, -0.015190611, -0.1391859
2876, 3246842999, -103.89753723144531, 74.62578582763672, -4.922032356262207, -0.01207864, -0.0072445017, -0.06451225
2879, 3246893000, -104.12090301513672, 74.61943817138672, -5.311728000640869, 0.18192233, 0.004364314, -0.1486969
2882, 3246943001, -104.20844268798828, 74.59860229492188, -5.565967559814453, -0.18300101, 0.04020909, -0.1976862
2886, 3247009669, -104.2917709350586, 74.5731430053711, -5.6469292640686035, 0.18507499, -0.018302359, -0.108942986
2892, 3247109671, -104.37203216552734, 74.43211364746094, -5.642380237579346, 0.020619964, -0.023935108, -0.12430096
2895, 3247159672, -103.74030303955078, 74.18428802490234, -4.946231842041016, 0.33964133, 0.1692002, -0.014925003
2898, 3247209673, -102.15186309814453, 73.81070709228516, -3.342428207397461, 0.19027188, 0.29391953, 0.17654514
2901, 3247259674, -99.2337417602539, 73.0438232421875, -0.5502335429191589, 0.7069082, 0.45561373, 0.31236458
2904, 3247309675, -94.75688171386719, 71.52146911621094, 3.573627233505249, 0.8595048, 0.5050982, 0.5844021
2908, 3247376343, -88.14390563964844, 67.94412994384766, 9.131942749023438, 0.92130184, 0.5507753, 0.8761749
2911, 3247426344, -83.53980255126953, 64.30982208251953, 12.665287971496582, 0.59774184, 0.38285267, 0.9502716
2914, 3247476345, -79.31005096435547, 59.86490249633789, 15.5096435546875, 0.6224291, 0.02040852, 1.0673838
2917, 3247526346, -75.62364196777344, 54.98438262939453, 17.435546875, 0.045655426, -0.026063846, 0.93038654
2920, 3247576347, -72.19872283935547, 49.72150802612305, 19.14302635192871, -0.15528037, 0.11969834, 0.9010849
2927, 3247693016, -65.21649932861328, 37.049381256103516, 22.145305633544922, -0.41985837, -0.32142282, 0.46900463
2930, 3247743017, -62.51123809814453, 31.739606857299805, 23.15472412109375, -0.61837834, -0.19162615, 0.039227486
2933, 3247793018, -60.298072814941406, 26.588571548461914, 24.086267471313477, -0.49944484, -0.18995428, -0.08993244
2936, 3247843019, -58.385467529296875, 21.569536209106445, 24.847457885742188, -0.6267468, -0.14473984, -0.45594692
2939, 3247893020, -56.95785903930664, 16.781841278076172, 25.572370529174805, -0.6064966, -0.13903356, -0.30478096
2942, 3247943021, -55.825870513916016, 12.369242668151855, 26.28181266784668, -0.514699, -0.20737845, -0.48957348
2945, 3247993022, -54.94367980957031, 8.284638404846191, 26.93842315673828, -0.391516, 0.10694178, -0.86560154
2949, 3248059690, -53.998844146728516, 3.4065256118774414, 27.612398147583008, -0.033690155, -0.24271044, -0.58786964
2952, 3248109691, -52.821144104003906, 0.23925966024398804, 27.939048767089844, -0.05686488, -0.18039462, -0.75335217
2955, 3248159692, -52.01861572265625, -2.5341084003448486, 28.091527938842773, 0.10640748, 0.19926202, -0.9504976
2961, 3248259694, -52.1008186340332, -6.789384841918945, 28.008485794067383, 0.20108578, -0.14456482, -0.57269573
2964, 3248309695, -51.92250061035156, -8.18134593963623, 27.9124698638916, -0.010767289, 0.15945302, -0.37039185
2968, 3248376363, -51.082847595214844, -9.403121948242188, 27.845439910888672, 0.4530572, 0.13161986, -0.6938143
2971, 3248426364, -50.38053512573242, -9.924567222595215, 27.820539474487305, 0.24811645, 0.13843115, -0.62092686
2974, 3248476365, -50.36792755126953, -10.146961212158203, 27.747905731201172, 0.101599604, 0.314951, -0.59174824
2977, 3248526366, -50.627525329589844, -10.204997062683105, 27.684728622436523, 0.35895297, -0.121202804, 0.082484245
2980, 3248576367, -50.32455062866211, -10.205036163330078, 27.575164794921875, 0.15565409, 0.3188363, -0.2977438
2983, 3248626368, -50.3111686706543, -10.132590293884277, 27.46031951904297, 0.19999805, -0.21973313, 0.09923744
2986, 3248676369, -50.202301025390625, -10.021594047546387, 27.34885025024414, 0.056117173, 0.22497407, -0.11375904
2990, 3248743037, -50.234703063964844, -9.788403511047363, 27.253326416015625, 0.12529488, 0.30333546, -0.010497093
2993, 3248793038, -50.40902328491211, -9.624920845031738, 27.237895965576172, 0.18881431, 0.16916747, 0.08127022
2996, 3248843039, -50.21333312988281, -9.474644660949707, 27.194414138793945, 0.21537541, -0.083557636, 0.07498741
2999, 3248893040, -50.13766098022461, -9.27737808227539, 27.11895179748535, 0.12631331, 0.23836674, -0.20101833
3005, 3248993042, -50.434783935546875, -8.783175468444824, 27.03915786743164, 0.0637659, 0.0829736, -0.006421089
3008, 3249043043, -50.286460876464844, -8.539938926696777, 26.97962760925293, 0.1314436, 0.0696891, -0.006567955
3012, 3249109711, -50.29751205444336, -8.200606346130371, 26.96322250366211, 0.059544746, 0.123190284, 0.11204529
3015, 3249159712, -50.45611572265625, -8.003006935119629, 26.941513061523438, 0.06104653, 0.21542536, 0.11361599
3018, 3249209713, -50.62786102294922, -7.813314914703369, 27.006784439086914, 0.13860676, -0.0734848, 0.05975151
3021, 3249259714, -50.432579040527344, -7.684168815612793, 26.97292709350586, 0.099277526, 0.06789966, 0.19404125
3027, 3249359716, -50.13457107543945, -7.394979953765869, 27.057697296142578, 0.0842914, 0.007820025, 0.0066099167
3031, 3249426384, -50.07303237915039, -7.233246326446533, 27.117481231689453, 0.049339592, 0.06353378, 0.10594368
3034, 3249476385, -49.9395866394043, -7.106174945831299, 27.162857055664062, 0.124951676, 0.082340606, -0.06330395
3037, 3249526386, -49.82053756713867, -7.024421691894531, 27.167278289794922, 0.12703203, 0.06737351, 0.13162994
3040, 3249576387, -49.824302673339844, -6.908700466156006, 27.18450355529785, 0.02674176, 0.145403, 0.0025701523
3043, 3249626388, -49.94903564453125, -6.791469097137451, 27.16803741455078, 0.09437667, 0.109996535, 0.006392479
3046, 3249676389, -49.930904388427734, -6.673030376434326, 27.112117767333984, 0.22681715, -0.06275931, 0.043147087
3053, 3249793058, -49.70542526245117, -6.364893913269043, 26.8454647064209, 0.11280509, 0.10184055, 0.019685745
3056, 3249843059, -49.44987487792969, -6.15320348739624, 26.70244789123535, 0.05221475, 0.17635374, 0.019478798
3065, 3249993062, -47.8304443359375, -5.423656940460205, 25.84197998046875, 0.15495504, 0.037714012, -0.016572952
3075, 3250159732, -44.88583755493164, -3.6383419036865234, 23.675813674926758, 0.15638374, 0.16799547, 0.1269207
3078, 3250209733, -44.02365493774414, -3.0339324474334717, 23.086164474487305, -0.07760566, 0.33399138, 0.10673046
3081, 3250259734, -43.5969123840332, -2.4007012844085693, 22.518508911132812, 0.12953101, 0.08282451, 0.18725204
3084, 3250309735, -43.07976531982422, -1.8316608667373657, 22.030611038208008, -5.687287E-4, 0.008095415, 0.26811314
3087, 3250359736, -42.18191146850586, -1.3012702465057373, 21.57040786743164, 0.22297987, -0.11207923, 0.17186928
3090, 3250409737, -40.82655334472656, -0.8101493716239929, 21.06390380859375, 0.2295953, -0.11768427, -0.25146484
3093, 3250459738, -39.967586517333984, -0.23216776549816132, 20.38507080078125, 0.09767824, -0.05549134, -0.46430397
3097, 3250526406, -40.01041030883789, 0.7093549966812134, 19.36440658569336, 0.20382693, -0.03231282, -0.26725674
3100, 3250576407, -39.99898910522461, 1.5861648321151733, 18.531164169311523, 0.14322677, -0.16018994, -0.20223618
3103, 3250626408, -40.14855194091797, 2.5366053581237793, 17.49656105041504, -0.028275758, 0.1743401, 0.17028332
3109, 3250726410, -40.7844352722168, 4.403024196624756, 15.71086597442627, -0.04032354, 0.3435734, 0.30496216
3112, 3250776411, -41.21122741699219, 5.175609588623047, 15.018033981323242, 0.04492713, 0.056561965, 0.27025223
3116, 3250843079, -41.06456756591797, 6.126990795135498, 14.18298625946045, 0.05153201, 0.18967758, 0.055290222
3119, 3250893080, -40.99079895019531, 6.871422290802002, 13.549186706542969, 0.058927312, 0.047919612, -0.14795208
3122, 3250943081, -41.024169921875, 7.713508605957031, 12.925716400146484, 0.0961397, 0.18084009, 0.046359062
3125, 3250993082, -41.28754425048828, 8.559714317321777, 12.322272300720215, 0.12964478, 0.21045086, 0.3819399
3128, 3251043083, -41.364383697509766, 9.243683815002441, 11.8776273727417, 0.10501278, 0.08011442, 0.20127296
3131, 3251093084, -41.558258056640625, 9.73584270477295, 11.440603256225586, 0.14300425, 0.096593134, 0.1184988
3134, 3251143085, -41.50057601928711, 10.241868019104004, 11.149889945983887, 0.074573785, 0.09022838, 0.09701347
3138, 3251209753, -41.576080322265625, 10.710803985595703, 10.847235679626465, 0.16425909, 0.10584031, 0.13971806
3144, 3251309755, -41.59126663208008, 11.235176086425781, 10.456709861755371, 0.22990067, 0.053753972, -0.03529644
3147, 3251359756, -41.25589370727539, 11.613608360290527, 10.392179489135742, -0.05952977, 0.08763317, 0.008879662
3150, 3251409757, -41.153926849365234, 11.842819213867188, 10.345937728881836, 0.18299022, 0.1701254, -0.12982845
3153, 3251459758, -41.13458251953125, 12.036480903625488, 10.364428520202637, 0.16312909, -0.16635264, 0.4330902
3157, 3251526426, -40.70222854614258, 12.227495193481445, 10.224773406982422, 0.09704871, 0.03569256, 0.06916332
3160, 3251576427, -40.40302658081055, 12.364899635314941, 10.189298629760742, 0.20329602, 0.14837416, 0.021057129
3163, 3251626428, -40.54065704345703, 12.434617042541504, 10.153894424438477, 0.15527356, 0.049988, 0.13457298
3169, 3251726430, -40.11951446533203, 12.552992820739746, 10.077407836914062, 0.11676138, 0.14732365, 0.09393692
3172, 3251776431, -39.69661331176758, 12.686186790466309, 10.10213851928711, -0.0139935855, 0.16509978, -0.30047607
3175, 3251826432, -39.424217224121094, 12.866042137145996, 10.160346031188965, 0.021161033, 0.022906277, 0.0771637
3179, 3251893100, -39.11104202270508, 13.146440505981445, 10.205700874328613, 0.13931708, 0.04628551, -0.0062475204
3185, 3251993102, -38.36450958251953, 13.43492317199707, 10.167189598083496, -0.040642086, 0.29834712, -0.1470213
3191, 3252093104, -37.672115325927734, 13.94897747039795, 10.285426139831543, 0.17905645, 0.05549, 0.048991203
3194, 3252143105, -37.33688735961914, 14.156810760498047, 10.36917495727539, 0.19062974, 0.076440535, 0.2184124
3197, 3252193106, -37.124759674072266, 14.199202537536621, 10.413546562194824, 0.17688777, 0.02626188, 0.32137966
3201, 3252259774, -36.757293701171875, 14.131389617919922, 10.440704345703125, 0.028029867, 0.14760885, 0.13769436
3204, 3252309775, -36.54467010498047, 14.000553131103516, 10.506360054016113, 0.14344849, 0.13021821, 0.04530239
3207, 3252359776, -36.22722244262695, 13.86274242401123, 10.721019744873047, 0.1492015, 0.06894123, 0.15479374
3210, 3252409777, -35.98476791381836, 13.686887741088867, 10.944965362548828, 0.16228695, 0.027592227, 0.08010578
3216, 3252509779, -35.06511306762695, 13.055655479431152, 11.447946548461914, 0.17209826, -0.02468097, 0.2829628
3220, 3252576447, -34.12492752075195, 12.38923168182373, 11.877492904663086, 0.10163497, 0.14295396, 0.18469524
3223, 3252626448, -33.46019744873047, 11.797261238098145, 12.24986743927002, -0.08509205, 0.029986722, 0.17059135
3226, 3252676449, -32.853302001953125, 11.19132137298584, 12.67127513885498, 0.014106965, 0.116437286, 0.10435295
3232, 3252776451, -31.885164260864258, 9.949883460998535, 13.718070983886719, 0.05447427, -0.06501277, 0.39286137
3235, 3252826452, -31.773801803588867, 9.279255867004395, 13.934986114501953, 0.6417771, -0.11939973, 0.85012245
3238, 3252876453, -31.426008224487305, 7.878469467163086, 14.120429039001465, 0.18453543, 0.20892806, 0.9928217
3242, 3252943121, -31.68528175354004, 5.304276943206787, 14.168885231018066, 0.13692957, -0.2362429, 0.65357685
3245, 3252993122, -31.619178771972656, 2.95698881149292, 13.956414222717285, -0.12570877, -0.106767, 0.5359812
3248, 3253043123, -31.34299659729004, 0.44700220227241516, 13.847002983093262, -0.2162314, 0.112707525, -0.099515915
3254, 3253143125, -30.38343048095703, -3.8530566692352295, 14.14448356628418, -0.037834987, 0.23203886, -0.56118774
3257, 3253193126, -29.646316528320312, -5.16281795501709, 14.650933265686035, -0.026503496, 0.6680002, -1.0723076
3260, 3253243127, -28.84292984008789, -5.629528999328613, 15.374998092651367, 0.20682497, 0.2815625, -0.68988323
3264, 3253309795, -27.21454429626465, -5.75840425491333, 16.678054809570312, -0.21129797, 0.8498049, -0.43392658
3267, 3253359796, -25.805057525634766, -5.564239978790283, 18.362899780273438, -0.13640046, 0.39930367, -0.30309677
3270, 3253409797, -24.136281967163086, -5.458118438720703, 20.195693969726562, 0.16244201, -0.29059523, 0.0526762
3276, 3253509799, -22.458465576171875, -4.961219787597656, 23.27739143371582, 0.18066955, -0.16744988, -0.23939228
3279, 3253559800, -22.458890914916992, -4.616217613220215, 24.330974578857422, 0.33571708, -0.5168508, -0.025317192
3282, 3253609801, -21.98399543762207, -4.311311721801758, 25.068641662597656, 0.33894622, -0.38301918, 0.037522316
3289, 3253726470, -22.560575485229492, -3.7963204383850098, 26.021255493164062, 0.2527555, -0.19512044, 0.30984783
3298, 3253876473, -21.93385124206543, -3.2398507595062256, 26.430526733398438, 0.16330555, -0.0061942143, 0.2233944
3301, 3253926474, -21.894821166992188, -3.0916788578033447, 26.462064743041992, 0.17007911, -0.03533863, 0.1785202
3305, 3253993142, -21.75933074951172, -2.9759716987609863, 26.398195266723633, 0.05105125, 0.09535253, 0.12434101
3308, 3254043143, -21.62112808227539, -2.8686578273773193, 26.40921974182129, 0.22484118, 0.11331246, 0.010620117
3311, 3254093144, -21.503705978393555, -2.790658950805664, 26.352218627929688, 0.061091848, 0.051262584, 0.035038948
3314, 3254143145, -21.318384170532227, -2.617520809173584, 26.27387237548828, 0.16392685, 0.020943053, -0.014858246
3317, 3254193146, -21.2532958984375, -2.4344980716705322, 26.15239906311035, 0.053755593, 0.05558767, 0.10686493
3320, 3254243147, -21.326637268066406, -2.269881010055542, 26.007871627807617, 0.011448278, 0.17311023, 0.2655239
3323, 3254293148, -21.57636070251465, -2.271357536315918, 25.904523849487305, -0.0033945472, -0.040338725, 0.3693533
3327, 3254359816, -21.52166748046875, -2.487123966217041, 25.823673248291016, -0.008838485, 9.0478046E-4, 0.23628426
3333, 3254459818, -22.089303970336914, -2.8220374584198, 25.80003547668457, 0.10702426, 0.20128883, -0.19251919
3336, 3254509819, -22.230810165405273, -2.7726378440856934, 25.932376861572266, -0.017126344, 0.18163747, -0.090519905
3342, 3254609821, -21.899370193481445, -2.4659197330474854, 26.356197357177734, 0.07077839, 0.051615287, 0.06661701
3345, 3254659822, -21.882017135620117, -2.2607786655426025, 26.49510383605957, 0.14402811, 0.024683429, 0.021493912
3349, 3254726490, -22.031320571899414, -1.9607802629470825, 26.51506233215332, -0.011129827, 0.044124253, 0.11752415
3352, 3254776491, -21.95798110961914, -1.7345712184906006, 26.57309341430664, 0.038159974, 0.067827016, 0.21706009
3358, 3254876493, -21.859952926635742, -1.4879167079925537, 26.72392463684082, 0.050970566, 0.0068990625, 0.21243763
3361, 3254926494, -21.84098243713379, -1.4331939220428467, 26.91057777404785, 0.05438646, 0.10194314, 0.08234882
3364, 3254976495, -21.818084716796875, -1.391648292541504, 27.10812759399414, 0.15214767, -0.09380202, 0.07492542
3368, 3255043163, -21.84699249267578, -1.2533981800079346, 27.271326065063477, 0.1060664, 0.07149363, -0.063988686
3374, 3255143165, -22.291698455810547, -0.9641693830490112, 27.399213790893555, 0.06250545, 0.047211148, 0.09570217
3380, 3255243167, -22.31859016418457, -0.7199477553367615, 27.48409080505371, 0.028451188, 0.016029231, 0.16141033
3383, 3255293168, -22.42951202392578, -0.6282905340194702, 27.496713638305664, 0.12315737, 0.035112098, 0.17854404
3386, 3255343169, -22.484203338623047, -0.5987427830696106, 27.473859786987305, 0.049522594, -0.037472505, 0.17182922
3390, 3255409837, -22.50531005859375, -0.6171421408653259, 27.40859603881836, 0.007913755, -0.020077946, 0.29680157
3393, 3255459838, -22.522890090942383, -0.7669370174407959, 27.408327102661133, 0.009450295, 0.06742279, 0.12603855
3396, 3255509839, -22.62602996826172, -0.9696505069732666, 27.424497604370117, 0.010478385, -0.051794454, 0.032746315
3399, 3255559840, -22.726314544677734, -1.1080650091171265, 27.43098258972168, 0.084141344, -0.0025679404, 0.043141365
3402, 3255609841, -22.767473220825195, -1.1258054971694946, 27.439712524414062, 0.07056349, 0.07399475, -0.023143768
3409, 3255726510, -22.480802536010742, -1.2497650384902954, 27.32925033569336, 0.06231966, 0.0050331764, 0.054579735
3412, 3255776511, -22.4222469329834, -1.2490545511245728, 27.248031616210938, 0.08667229, 0.027745781, 0.0062847137
3415, 3255826512, -22.415555953979492, -1.246693730354309, 27.15850830078125, 0.05859761, 0.047620106, -0.053174973
3421, 3255926514, -22.804964065551758, -1.037304162979126, 26.91973114013672, 0.089870594, -0.0014788734, 0.044571877
3424, 3255976515, -22.90678596496582, -0.8645895719528198, 26.872438430786133, 0.02578859, 0.0049263374, 0.23598194
3434, 3256143185, -23.033309936523438, -0.7336468696594238, 26.844274520874023, -0.0046819258, 0.09623786, -0.033554077
3437, 3256193186, -23.27246856689453, -0.5943485498428345, 26.806177139282227, 0.06933383, 0.08013632, 0.044895172
3440, 3256243187, -23.392353057861328, -0.48693177103996277, 26.772483825683594, 0.03040402, 0.03799966, 0.23095512
3443, 3256293188, -23.359983444213867, -0.4350607693195343, 26.751144409179688, 0.0054337676, 0.13062991, 0.19062424
3446, 3256343189, -23.47504234313965, -0.41202232241630554, 26.732500076293945, -0.012497112, 0.11027582, 0.1552906
3453, 3256459858, -23.921743392944336, -0.37645331025123596, 26.411998748779297, -0.04734552, 0.15918939, 0.062729836
3456, 3256509859, -24.00902557373047, -0.33427396416664124, 26.28215789794922, -0.026136767, 0.23050009, 0.037769318
3459, 3256559860, -24.044578552246094, -0.2986885607242584, 26.184322357177734, 0.049304947, 0.16958699, 0.05262375
3462, 3256609861, -24.23836898803711, -0.2073470950126648, 25.991010665893555, -0.030357558, 0.16803402, 0.023871422
3468, 3256709863, -24.721616744995117, -0.03794384375214577, 25.774860382080078, 0.120358095, 0.045174874, 0.12307167
3472, 3256776531, -24.820775985717773, 0.21125908195972443, 25.703447341918945, 0.22521985, -0.0045429007, 0.121831894
3475, 3256826532, -24.93768310546875, 0.3233322203159332, 25.57951545715332, 0.13320763, 0.037079234, -0.060473442
3478, 3256876533, -25.21915626525879, 0.4334658980369568, 25.39256477355957, 0.13369983, 0.044593517, -0.16488266
3481, 3256926534, -25.26589584350586, 0.6528201103210449, 25.201635360717773, 0.0247062, 0.15323009, -0.16549492
3487, 3257026536, -25.488798141479492, 1.1588826179504395, 24.705114364624023, 0.011245021, 0.0974512, 0.1517477
3497, 3257193206, -25.858928680419922, 1.8463042974472046, 24.335914611816406, 0.12341818, -0.057181686, 0.303401
3500, 3257243207, -25.795345306396484, 1.827256679534912, 24.27145004272461, 0.009046687, 0.0870811, 0.047540665
3503, 3257293208, -25.90934181213379, 1.7979236841201782, 24.19554328918457, 0.04383768, -0.09863269, 0.07192421
3506, 3257343209, -26.054149627685547, 1.7701891660690308, 24.247934341430664, 0.1494552, -0.10457903, 0.091630936
3509, 3257393210, -26.21514129638672, 1.690838098526001, 24.36642837524414, 0.0897723, -0.15134643, 0.09182739
3512, 3257443211, -26.438026428222656, 1.581838846206665, 24.477497100830078, 0.15439007, -0.1660232, 0.0286026
3516, 3257509879, -26.472713470458984, 1.4951602220535278, 24.614608764648438, 0.1265453, -0.10183451, 0.06672001
3519, 3257559880, -26.432960510253906, 1.435009241104126, 24.706071853637695, 0.176999, 0.007881264, 0.007545471
3522, 3257609881, -26.43848991394043, 1.369545817375183, 24.804241180419922, 0.09880535, -0.054828174, 0.046726227
3525, 3257659882, -26.46898651123047, 1.2923144102096558, 24.82124900817871, 0.11547551, 0.0504842, -0.0057020187
3531, 3257759884, -26.747465133666992, 1.247822642326355, 24.759254455566406, -0.064627126, 0.15671186, 0.011687279
3534, 3257809885, -26.836158752441406, 1.3070119619369507, 24.696216583251953, -0.13081953, 0.07725055, 0.07771778
3538, 3257876553, -27.05336570739746, 1.5103065967559814, 24.642515182495117, 0.013996996, 0.10315302, 0.2816286
3541, 3257926554, -27.29979705810547, 1.5635018348693848, 24.59343147277832, -0.07606455, 0.0104966555, 0.25622845
3544, 3257976555, -27.477787017822266, 1.4707413911819458, 24.420209884643555, -0.138842, 0.12402533, 0.07957077
3547, 3258026556, -27.624595642089844, 1.3839595317840576, 24.204322814941406, -0.17442152, 0.17264119, -0.08225441
3550, 3258076557, -27.759197235107422, 1.4393242597579956, 24.065898895263672, 0.0597506, 0.03247129, 0.1470375
3553, 3258126558, -27.93423843383789, 1.5503575801849365, 24.023962020874023, 0.1454137, -0.058678187, 0.46666145
3557, 3258193226, -28.23089027404785, 1.3571007251739502, 24.107555389404297, 0.132228, -0.016566332, 0.0954237
3560, 3258243227, -28.31199073791504, 1.25942862033844, 24.184768676757812, 0.17145441, -0.19916546, 0.021399498
3563, 3258293228, -27.78860855102539, 1.208444356918335, 24.371801376342773, 0.2731265, -0.29288086, -0.011461258
3566, 3258343229, -27.22526741027832, 1.1328333616256714, 24.618518829345703, 0.23490849, -0.21999553, -0.062452316
3569, 3258393230, -27.079288482666016, 1.1148653030395508, 24.9121150970459, 0.3643975, -0.39255714, 5.9604645E-4
3572, 3258443231, -26.979751586914062, 1.108052134513855, 25.224441528320312, 0.3701152, -0.41676718, 0.089585304
3575, 3258493232, -26.67183494567871, 1.074426531791687, 25.495773315429688, 0.12970237, 0.004465968, -0.04967022
3579, 3258559900, -26.269502639770508, 1.0430855751037598, 25.907466888427734, -0.029761085, -0.03137608, -0.19521713
3582, 3258609901, -25.667461395263672, 1.0908600091934204, 26.233484268188477, 0.1491005, 0.042616323, -0.027147293
3585, 3258659902, -25.219724655151367, 1.30988609790802, 26.4510498046875, -0.0057039666, 0.09955356, 0.16199493
3588, 3258709903, -25.134611129760742, 1.4531168937683105, 26.54946517944336, -0.019108346, 0.16911392, 0.3429432
3598, 3258876573, -24.633560180664062, 1.2006412744522095, 27.123193740844727, -0.082363464, 0.06520834, -0.024626732
3604, 3258976575, -24.268953323364258, 1.15174400806427, 27.358680725097656, 0.0065371953, 0.09835922, 0.050465584
3607, 3259026576, -24.088838577270508, 1.1866642236709595, 27.49106216430664, 0.012955565, 0.11065322, 0.07612896
3610, 3259076577, -24.044118881225586, 1.2314053773880005, 27.56219482421875, 0.10630824, 0.056173053, 0.1074419
3616, 3259176579, -23.68533706665039, 1.2531558275222778, 27.62547492980957, 0.03230022, 0.017708484, 0.031191826
3620, 3259243247, -23.51198959350586, 1.315000295639038, 27.583147048950195, 0.07740027, 0.018909961, 0.022450447
3623, 3259293248, -23.45943832397461, 1.411611795425415, 27.500146865844727, 0.024807172, 0.06450159, 0.0877285
3626, 3259343249, -23.50471305847168, 1.4952566623687744, 27.439041137695312, 0.028874382, 0.02751858, 0.08137703
3629, 3259393250, -23.55218505859375, 1.5837085247039795, 27.339153289794922, 0.024420075, 0.16177264, 0.14487934
3632, 3259443251, -23.590885162353516, 1.6014816761016846, 27.301782608032227, 0.0029603452, 0.018335884, 0.059934616
3642, 3259609921, -23.577136993408203, 1.6539334058761597, 27.27301788330078, 0.07251356, 0.04003279, 0.05053234
3645, 3259659922, -23.516050338745117, 1.594851016998291, 27.248348236083984, 0.0053507606, 0.057543524, 0.13007736
3648, 3259709923, -23.58685302734375, 1.5678911209106445, 27.306894302368164, 0.017117908, 0.035432056, 0.0058279037
3651, 3259759924, -23.665388107299805, 1.5752058029174805, 27.351394653320312, 0.10214671, 0.0058394996, 0.018065453
3654, 3259809925, -23.640172958374023, 1.6275403499603271, 27.38862419128418, 0.07065373, 0.036942445, -0.008229256
3657, 3259859926, -23.610876083374023, 1.6647586822509766, 27.384990692138672, 0.004351741, 0.01517273, 0.19018364
3661, 3259926594, -23.469528198242188, 1.6134403944015503, 27.441980361938477, -0.048998874, 0.088121325, 0.15956306
3664, 3259976595, -23.3586483001709, 1.5987584590911865, 27.535642623901367, -0.053679086, 0.2408317, 0.017259598
3667, 3260026596, -23.16155433654785, 1.6248925924301147, 27.83596420288086, -0.28083986, 0.49308288, 0.070384026
3670, 3260076597, -22.715112686157227, 1.61336350440979, 28.747966766357422, -0.48580238, 0.59756625, -0.09281349
3676, 3260176599, -21.657512664794922, 1.9261808395385742, 32.39483642578125, -0.89544004, 0.6777383, -0.020882607
3679, 3260226600, -21.048816680908203, 2.2689006328582764, 35.350975036621094, -0.5575957, 0.7427933, 0.16032314
3683, 3260293268, -20.88294792175293, 2.4426517486572266, 40.118228912353516, -0.6844999, 0.040062796, 0.27954674
3686, 3260343269, -21.21806526184082, 2.6141209602355957, 44.08641815185547, -0.8879875, 0.45011184, -0.06567001
3689, 3260393270, -21.586833953857422, 2.6903553009033203, 48.689788818359375, -0.46355146, -0.11837928, 0.07554817
3692, 3260443271, -21.752277374267578, 2.789590835571289, 53.593265533447266, -0.93581396, -0.2984744, 0.052657127
3695, 3260493272, -21.371423721313477, 2.930148124694824, 58.96625900268555, -0.2835853, -0.29059982, 0.043269157
3698, 3260543273, -21.07341766357422, 3.0931735038757324, 64.39366149902344, -0.7344228, -0.42011175, 0.16136646
3701, 3260593274, -21.16886329650879, 3.109323740005493, 69.78193664550781, -0.13258922, -0.35367495, 0.20000362
3705, 3260659942, -21.6021785736084, 3.1469345092773438, 76.77102661132812, -0.24747857, -0.4125764, -0.084848404
3714, 3260809945, -22.06087303161621, 3.960850715637207, 91.5944595336914, 0.635178, -0.26231447, 0.15947819
3717, 3260859946, -22.65203285217285, 4.227325439453125, 95.5996322631836, 0.6363513, -0.1834211, 0.06998348
3723, 3260959948, -24.80674171447754, 4.722057342529297, 101.82152557373047, 0.94746023, -0.13790113, 0.09466648
3727, 3261026616, -25.44035530090332, 5.183322429656982, 104.68832397460938, 0.73467445, 0.16204444, 0.104364395
3730, 3261076617, -25.356658935546875, 5.361591339111328, 106.17229461669922, 0.4032557, -0.07075749, 0.104003906
3733, 3261126618, -25.311567306518555, 5.430107593536377, 107.40247344970703, 0.3304288, -0.085334, 0.15838814
3736, 3261176619, -25.124391555786133, 5.4856791496276855, 108.36990356445312, 0.36764076, -0.14347102, 0.07988739
3742, 3261276621, -24.213132858276367, 5.693459987640381, 109.56478881835938, 0.024520488, -0.09805586, 0.08170891
3746, 3261343289, -23.81594467163086, 5.821618556976318, 109.99443054199219, -0.09319691, -0.13282917, 0.08520317
3752, 3261443291, -23.64546775817871, 5.880648136138916, 110.41434478759766, 0.0053584995, -0.06708848, 0.055740356
3755, 3261493292, -23.573041915893555, 6.070693016052246, 110.44112396240234, -0.080870286, -0.06330742, 0.09537792
3761, 3261593294, -23.777633666992188, 6.1905035972595215, 110.38585662841797, -0.11484984, 0.06881238, 0.005173683
3764, 3261643295, -23.76292610168457, 6.307307720184326, 110.32792663574219, -0.22856787, -0.06871571, 0.094646454
3774, 3261809965, -23.7565975189209, 6.655353546142578, 110.66493225097656, -0.10883712, 0.0018359354, 0.09409046
3777, 3261859966, -23.589426040649414, 6.716924667358398, 110.85619354248047, -0.15656495, -0.05368932, 0.124448776
3780, 3261909967, -23.551382064819336, 6.731686592102051, 111.0378646850586, 0.0075526144, -0.08958829, 0.13402939
