sep=,
DeviceTag:,Xsens_2,,,,,,,,,,,,,,,,,
FirmwareVersion:,2.2.1,,,,,,,,,,,,,,,,,
AppVersion:,2022.0.1,,,,,,,,,,,,,,,,,
SyncStatus:,Synced,,,,,,,,,,,,,,,,,
OutputRate:,60Hz,,,,,,,,,,,,,,,,,
FilterProfile:,General,,,,,,,,,,,,,,,,,
Measurement Mode:,Sensor fusion Mode - Complete (Euler),,,,,,,,,,,,,,,,,
StartTime:,2023-05-17 15:21:16.694 +0200,,,,,,,,,,,,,,,,,
© Xsens Technologies B. V. 2005-2023,,,,,,,,,,,,,,,,,,,

PacketCounter,SampleTimeFine,Euler_X,Euler_Y,Euler_Z,FreeAcc_X,FreeAcc_Y,FreeAcc_Z
1, 3198942041, -35.96377944946289, 54.24312973022461, -136.9568634033203, -0.52742785, 0.083119325, 0.052518845
2, 3198958708, -36.0963020324707, 54.115299224853516, -137.01364135742188, -0.43338403, -0.004132196, 0.033504486
3, 3198975375, -36.26902389526367, 54.021812438964844, -137.07774353027344, -0.32305267, -0.09279129, 0.04165268
4, 3198992042, -36.47812271118164, 53.952579498291016, -137.14981079101562, -0.22616427, -0.078758255, 0.038406372
5, 3199008709, -36.71413803100586, 53.89857864379883, -137.23753356933594, -0.18636353, -0.049083, 0.019173622
6, 3199025376, -36.96653747558594, 53.85017013549805, -137.3509979248047, -0.19559585, 0.07029203, 0.028132439
7, 3199042043, -37.21364974975586, 53.79500198364258, -137.4759521484375, -0.29261166, 0.13232917, 0.03863907
8, 3199058710, -37.44105911254883, 53.73701477050781, -137.6023406982422, -0.41713318, 0.1426378, 0.03277397
9, 3199075377, -37.661293029785156, 53.682899475097656, -137.72842407226562, -0.49919507, 0.12941054, 0.023136139
10, 3199092044, -37.87882995605469, 53.636722564697266, -137.84915161132812, -0.4815716, 0.10064565, -0.030593872
11, 3199108711, -38.08432388305664, 53.60482406616211, -137.9691925048828, -0.424911, 0.0779089, -0.042819023
12, 3199125378, -38.269710540771484, 53.58238220214844, -138.0824432373047, -0.35420087, 0.048029583, -0.009342194
13, 3199142045, -38.45444869995117, 53.57527160644531, -138.1942138671875, -0.25702223, 0.055471893, 0.0034799576
14, 3199158712, -38.65155029296875, 53.57683181762695, -138.30868530273438, -0.13670366, 0.045322057, 0.025702477
20, 3199258714, -39.99814987182617, 53.67611312866211, -139.00155639648438, -0.15894409, 0.15835692, 8.907318E-4
23, 3199308715, -40.729339599609375, 53.768436431884766, -139.2706298828125, -0.3604637, 0.1757183, -0.042336464
26, 3199358716, -41.566932678222656, 54.036014556884766, -139.4885711669922, -0.1571305, 0.162276, 0.043029785
29, 3199408717, -42.31787872314453, 54.340667724609375, -139.6616973876953, -0.13009773, 0.10004887, 9.870529E-4
33, 3199475385, -42.97693634033203, 54.60200119018555, -139.86940002441406, -0.1617704, -0.0064727115, -0.13205624
36, 3199525386, -43.32440185546875, 54.66970443725586, -140.0446014404297, -0.2656362, 0.023691367, -0.030023575
39, 3199575387, -43.76681137084961, 54.77711486816406, -140.36802673339844, -0.1762022, 0.17547633, 0.018749237
42, 3199625388, -44.18889236450195, 54.943809509277344, -140.6720733642578, -0.29807687, 0.14675681, 0.0016365051
45, 3199675389, -44.488548278808594, 55.16953659057617, -140.81617736816406, -0.29018307, 0.122191854, -0.08375454
48, 3199725390, -44.916473388671875, 55.4727668762207, -141.00587463378906, -0.27649224, 0.09611973, -0.037534714
51, 3199775391, -45.184326171875, 55.720035552978516, -141.11849975585938, -0.04282687, 0.2055338, -0.033350945
55, 3199842059, -45.35008239746094, 55.88053512573242, -141.29006958007812, -0.092364945, 0.29644814, -0.1106596
61, 3199942061, -45.192813873291016, 55.97178649902344, -141.4312286376953, -0.11342768, 0.1487035, -0.11704159
64, 3199992062, -45.01818084716797, 55.96339416503906, -141.34942626953125, -0.12944373, 0.14842735, -0.010056496
67, 3200042063, -44.77543640136719, 55.92745590209961, -141.18438720703125, -0.24057035, 0.17802036, -0.0386343
70, 3200092064, -44.689327239990234, 55.96002960205078, -141.0998077392578, -0.16333857, 0.1204537, 0.007126808
73, 3200142065, -44.76594924926758, 56.05324172973633, -141.09017944335938, -0.23049349, 0.11932798, -0.03678322
77, 3200208733, -44.7292594909668, 56.35079574584961, -141.25926208496094, -0.10569637, 0.14456572, 0.077178
80, 3200258734, -44.692440032958984, 56.45389938354492, -141.36932373046875, 0.031898428, 0.08794195, -0.05210209
83, 3200308735, -44.66545867919922, 56.44036102294922, -141.3982696533203, -0.22470316, 0.12830202, -0.035726547
86, 3200358736, -44.60765838623047, 56.45515823364258, -141.46151733398438, -0.05682705, 0.13406073, -0.027466774
96, 3200525406, -43.97142028808594, 56.188106536865234, -141.39163208007812, -0.24297109, 0.20267528, -0.01334095
105, 3200675409, -43.46103286743164, 55.926551818847656, -141.43429565429688, -0.19451751, 0.12816624, -0.0692215
108, 3200725410, -43.32450866699219, 55.86212158203125, -141.40631103515625, -0.118757576, 0.19962735, -0.04855156
111, 3200775411, -43.21630096435547, 55.79783248901367, -141.4121856689453, -0.14461645, 0.18880375, -0.033527374
114, 3200825412, -43.06950759887695, 55.69627380371094, -141.39434814453125, -0.1347593, 0.082178004, -0.038119316
118, 3200892080, -42.94807434082031, 55.56227493286133, -141.44297790527344, -0.11196971, 0.13997833, 4.8732758E-4
121, 3200942081, -42.87858581542969, 55.452857971191406, -141.51560974121094, -0.20058589, 0.16686448, -0.069129944
124, 3200992082, -42.791160583496094, 55.334808349609375, -141.51065063476562, -0.21722353, 0.13870275, -0.02809143
127, 3201042083, -42.79715347290039, 55.27954864501953, -141.54971313476562, -0.22894298, 0.13852528, -0.031334877
130, 3201092084, -42.80781936645508, 55.2685546875, -141.59971618652344, -0.18201934, 0.08476662, -0.034059525
136, 3201192086, -42.830135345458984, 55.24747085571289, -141.5711212158203, -0.1541218, 0.14313792, 0.008821487
143, 3201308755, -42.87372970581055, 55.22359848022461, -141.611572265625, -0.19835456, 0.15822539, -0.026206017
146, 3201358756, -42.90342330932617, 55.23494338989258, -141.65982055664062, -0.19023791, 0.18514696, -0.04925728
149, 3201408757, -42.89029312133789, 55.2418212890625, -141.67288208007812, -0.20577563, 0.14174823, -0.03555107
152, 3201458758, -42.803035736083984, 55.23513412475586, -141.63294982910156, -0.16816892, 0.18580721, -0.046339035
155, 3201508759, -42.75148010253906, 55.22109603881836, -141.6161651611328, -0.21600717, 0.119585246, -0.003520012
158, 3201558760, -42.81233596801758, 55.270225524902344, -141.67330932617188, -0.19607651, 0.14909264, -0.07090092
162, 3201625428, -42.76749801635742, 55.311737060546875, -141.65908813476562, -0.14094883, 0.19253093, -0.07425308
165, 3201675429, -42.71003723144531, 55.31391143798828, -141.64694213867188, -0.13084807, 0.19459966, 0.0033502579
168, 3201725430, -42.663997650146484, 55.30506134033203, -141.60838317871094, -0.20888917, 0.21901733, -0.030521393
171, 3201775431, -42.720008850097656, 55.32841110229492, -141.64060974121094, -0.18377951, 0.14712405, -0.02760601
177, 3201875433, -42.80754089355469, 55.3610954284668, -141.73233032226562, -0.20009752, 0.16276035, -0.06807518
181, 3201942101, -42.679725646972656, 55.33015441894531, -141.69183349609375, -0.11948489, 0.14050427, -0.0534153
184, 3201992102, -42.59004211425781, 55.287967681884766, -141.64178466796875, -0.18727346, 0.1961905, 0.008983612
187, 3202042103, -42.56124496459961, 55.25401306152344, -141.67205810546875, -0.19220929, 0.13136226, -0.051917076
190, 3202092104, -42.6353874206543, 55.273170471191406, -141.75914001464844, -0.19610669, 0.1608987, -0.0213871
193, 3202142105, -42.647491455078125, 55.28370666503906, -141.79092407226562, -0.21298908, 0.15612023, -0.046574593
196, 3202192106, -42.58220672607422, 55.28227615356445, -141.7918701171875, -0.14350829, 0.16206053, -0.014678001
199, 3202242107, -42.544803619384766, 55.28294372558594, -141.79962158203125, -0.12332305, 0.109568395, -0.08546257
203, 3202308775, -42.60322952270508, 55.281776428222656, -141.87588500976562, -0.23353025, 0.2804028, -0.011091232
206, 3202358776, -42.55998229980469, 55.27601623535156, -141.8883819580078, -0.17408061, 0.1417232, -0.05274582
209, 3202408777, -42.49684143066406, 55.25937271118164, -141.89047241210938, -0.10073818, 0.069863334, -0.030281067
212, 3202458778, -42.5167350769043, 55.23875427246094, -141.95584106445312, -0.17046629, 0.21435586, -0.043255806
215, 3202508779, -42.51493835449219, 55.20746612548828, -142.0380401611328, -0.21479182, 0.23685177, -0.012198448
218, 3202558780, -42.450016021728516, 55.14922332763672, -142.0695037841797, -0.18560135, 0.10561825, 0.0014648438
221, 3202608781, -42.44422912597656, 55.14900588989258, -142.14230346679688, -0.22026564, 0.11061377, -0.015008926
225, 3202675449, -42.403438568115234, 55.16053771972656, -142.17828369140625, -0.12046454, 0.2018132, -0.038969994
228, 3202725450, -42.30162048339844, 55.14039993286133, -142.12550354003906, -0.22137696, 0.22322719, -0.037675858
231, 3202775451, -42.27741241455078, 55.14996337890625, -142.14187622070312, -0.27094686, 0.12609103, -0.056391716
234, 3202825452, -42.30242156982422, 55.200767517089844, -142.12359619140625, -0.2617321, 0.20320065, 0.007780075
240, 3202925454, -42.398338317871094, 55.342437744140625, -142.05995178222656, -0.1338685, 0.12880917, -0.10275078
250, 3203092124, -42.33251190185547, 55.186851501464844, -142.28366088867188, -0.21153043, 0.11941649, -0.007883072
253, 3203142125, -42.22211837768555, 55.06521987915039, -142.3483428955078, -0.29958257, 0.12713137, -0.046804428
256, 3203192126, -42.16089630126953, 55.02322006225586, -142.40977478027344, -0.30738497, 0.21015716, 6.484985E-5
262, 3203292128, -42.191471099853516, 55.10533142089844, -142.34141540527344, -0.2867384, 0.22036925, -0.075161934
266, 3203358796, -42.199851989746094, 55.190467834472656, -142.20655822753906, -0.14001265, 0.10669927, -0.029271126
269, 3203408797, -42.23347091674805, 55.23329162597656, -142.16781616210938, -0.14912148, 0.2322094, -0.036942482
272, 3203458798, -42.266475677490234, 55.27356719970703, -142.15415954589844, -0.16050208, 0.15613732, -0.022313118
278, 3203558800, -42.3431282043457, 55.35197830200195, -142.0576934814453, -0.29439932, 0.17766564, -0.059630394
281, 3203608801, -42.39564514160156, 55.43365478515625, -141.96144104003906, -0.3626255, 0.14362876, -0.0019989014
288, 3203725470, -42.58485794067383, 55.65217208862305, -141.73818969726562, -0.11417623, 0.13661547, -0.009305954
291, 3203775471, -42.724281311035156, 55.71086502075195, -141.73289489746094, -0.2985913, 0.2852991, -0.014715195
294, 3203825472, -42.797088623046875, 55.79975891113281, -141.74705505371094, -0.21189654, 0.18941739, -0.0323925
297, 3203875473, -42.81656265258789, 55.87596130371094, -141.73388671875, -0.17670688, 0.15932126, -0.06369305
300, 3203925474, -42.841243743896484, 55.924041748046875, -141.70590209960938, -0.09903703, 0.18168262, -0.048989296
303, 3203975475, -42.911277770996094, 55.9402961730957, -141.74053955078125, -0.24626456, 0.20292842, 0.018116951
307, 3204042143, -43.05845642089844, 56.00153350830078, -141.86123657226562, -0.17413962, 0.23722403, -0.046869278
310, 3204092144, -43.15267562866211, 56.03290939331055, -141.96788024902344, -0.20623764, 0.14467457, -0.06346893
313, 3204142145, -43.11543655395508, 56.01027297973633, -141.9847869873047, -0.20610487, 0.14845295, -0.06845474
316, 3204192146, -43.057796478271484, 55.98121643066406, -141.99696350097656, -0.07650379, 0.20956753, -0.023723602
322, 3204292148, -43.01127624511719, 56.005287170410156, -142.03964233398438, -0.12218269, 0.22255498, -0.08922291
325, 3204342149, -42.824649810791016, 55.90088653564453, -142.00238037109375, -0.22185986, 0.25611365, -0.03157425
329, 3204408817, -42.63291549682617, 55.79636764526367, -142.03497314453125, -0.14780241, 0.17561111, -0.049755096
332, 3204458818, -42.561424255371094, 55.74086380004883, -142.09739685058594, -0.17303367, 0.17320901, -0.029902458
338, 3204558820, -42.749446868896484, 55.736881256103516, -142.30606079101562, -0.15741627, 0.1720814, -0.07434559
341, 3204608821, -42.769264221191406, 55.7111930847168, -142.4006805419922, -0.20334102, 0.21032111, -0.055613518
344, 3204658822, -42.70220947265625, 55.65336990356445, -142.4287109375, -0.20461427, 0.17960472, -0.012960434
347, 3204708823, -42.5699348449707, 55.57958221435547, -142.41610717773438, -0.20075263, 0.1717877, 0.0073652267
351, 3204775491, -42.409297943115234, 55.500492095947266, -142.3928985595703, -0.22350211, 0.20618512, -0.054819107
354, 3204825492, -42.31643295288086, 55.43793869018555, -142.41075134277344, -0.26353943, 0.23468581, -0.004647255
360, 3204925494, -42.05881118774414, 55.316246032714844, -142.3945770263672, -0.17915647, 0.19706924, -0.07362652
363, 3204975495, -41.87062454223633, 55.220333099365234, -142.3173370361328, -0.23047918, 0.2371801, 0.035508156
370, 3205092164, -41.483699798583984, 55.139671325683594, -142.1674346923828, -0.18913163, 0.20429285, -0.06392574
376, 3205192166, -41.2190055847168, 55.1042594909668, -142.10421752929688, -0.28435072, 0.19974525, -0.04515457
379, 3205242167, -41.082515716552734, 55.096065521240234, -142.09120178222656, -0.23463608, 0.19054234, 0.0053834915
382, 3205292168, -41.023128509521484, 55.13036346435547, -142.1822967529297, -0.28045613, 0.19539939, 0.002251625
385, 3205342169, -41.219417572021484, 55.2966194152832, -142.4196319580078, -0.32917377, 0.16803446, 0.12949753
388, 3205392170, -41.764244079589844, 55.676334381103516, -142.88099670410156, -0.34872615, 0.078098, -0.07433319
392, 3205458838, -41.98567199707031, 56.04825210571289, -143.29286193847656, -0.23143682, 0.20029074, -0.0146923065
395, 3205508839, -41.456241607666016, 56.1014404296875, -143.14552307128906, -0.43042606, 0.21568945, -0.013448715
398, 3205558840, -40.934139251708984, 56.24959945678711, -142.92942810058594, -0.3664192, 0.2446908, 0.0032587051
401, 3205608841, -40.64053726196289, 56.5189323425293, -142.74215698242188, -0.16254935, 0.14902994, -0.0992775
404, 3205658842, -40.319793701171875, 56.76555633544922, -142.50726318359375, -0.11510996, 0.22624975, -0.059716225
407, 3205708843, -39.9151496887207, 56.92380905151367, -142.25997924804688, -0.07787761, 0.3703651, -0.13243961
410, 3205758844, -39.44551086425781, 56.93718338012695, -141.8509979248047, -0.16751425, 0.17747678, -0.068182945
414, 3205825512, -38.75040817260742, 56.713539123535156, -141.173828125, -0.15236744, 0.1199109, -0.29708385
417, 3205875513, -38.36381149291992, 56.598087310791016, -140.92222595214844, -0.3261596, 0.012768289, -0.6146126
420, 3205925514, -37.98582458496094, 56.692413330078125, -140.90736389160156, -0.5508793, 0.035888806, -0.022262573
423, 3205975515, -37.67704772949219, 56.82275390625, -140.93455505371094, -0.5172057, 0.4009487, 0.14969158
433, 3206142185, -35.36809539794922, 57.24075698852539, -140.80398559570312, -0.42526984, 0.1926828, 0.05702877
436, 3206192186, -34.99226379394531, 57.620201110839844, -140.88160705566406, -0.17896515, 0.16257237, 0.1741457
439, 3206242187, -34.968441009521484, 58.113346099853516, -140.98104858398438, -0.26462862, 0.34087548, -0.068344116
442, 3206292188, -34.95692443847656, 58.64690017700195, -140.97023010253906, -0.2762286, 0.29900244, -0.17742062
445, 3206342189, -35.504459381103516, 59.29170608520508, -141.28150939941406, -0.011488343, 0.24615315, -0.09008312
448, 3206392190, -36.193634033203125, 59.96398162841797, -141.5859375, 0.117495395, 0.21259591, 0.13328171
451, 3206442191, -36.662559509277344, 60.523094177246094, -141.78466796875, -0.057021283, 0.3899672, -0.1321907
458, 3206558860, -38.75389862060547, 61.56596755981445, -143.75320434570312, -0.31186047, 0.36890244, -0.4691038
461, 3206608861, -39.96821212768555, 61.968299865722656, -145.0140838623047, -0.17508876, 0.041658234, -0.25691223
464, 3206658862, -41.47372055053711, 62.53791046142578, -146.38670349121094, -0.24671382, -0.04894431, -0.24010468
470, 3206758864, -43.91153335571289, 65.71930694580078, -148.8150634765625, -0.60295725, -0.13479328, 0.27327442
474, 3206825532, -46.15579605102539, 68.03987884521484, -152.21759033203125, -0.24545321, 0.27917662, -0.3167143
477, 3206875533, -48.59879684448242, 69.79048919677734, -155.93309020996094, 0.08305205, 0.54376364, -0.4845276
480, 3206925534, -52.02322769165039, 71.60362243652344, -161.1206817626953, -0.073903665, 0.8660877, 0.15828323
483, 3206975535, -53.91374206542969, 73.16361236572266, -166.45863342285156, 0.5435285, 0.8511046, 0.8138437
486, 3207025536, -52.5248908996582, 73.94760131835938, -169.3367919921875, -0.20368882, 0.39872354, 0.7560358
489, 3207075537, -47.992496490478516, 74.01754760742188, -169.3640594482422, 0.25014272, 0.53815126, -0.512722
492, 3207125538, -43.66898727416992, 73.91612243652344, -168.2380828857422, 0.14268027, 0.32805845, -0.42838955
496, 3207192206, -43.173988342285156, 74.5743179321289, -169.44923400878906, -0.09644741, -0.031795613, 0.12080383
499, 3207242207, -46.09132766723633, 75.69954681396484, -172.96835327148438, 0.046779584, 0.22090814, -0.024139404
508, 3207392210, -67.07225036621094, 79.341552734375, 166.021484375, 0.4931192, 0.09181879, -1.1052065
511, 3207442211, -70.95594024658203, 80.45767211914062, 162.42205810546875, -0.3722063, -0.33943135, -0.40233994
514, 3207492212, -75.92169952392578, 81.71463775634766, 157.6220245361328, -0.9767256, -0.016389087, 0.005923271
518, 3207558880, -91.23943328857422, 83.28040313720703, 141.728515625, -1.5673622, -8.828762E-5, 0.32330036
521, 3207608881, -106.39892578125, 83.51705169677734, 126.2391357421875, -1.66788, 0.36701977, 0.35462284
524, 3207658882, -115.30921173095703, 83.2948989868164, 117.19390106201172, -0.7405453, -0.7915185, 1.0054712
527, 3207708883, -118.24269104003906, 83.28177642822266, 116.0591049194336, 0.22244322, -0.23230171, 0.9410143
530, 3207758884, -118.8523941040039, 84.0612564086914, 117.21375274658203, 0.72109985, 5.7632814E-4, -0.89254284
536, 3207858886, -136.74440002441406, 86.01312255859375, 102.3906478881836, 0.13501893, 0.32949486, -1.6371336
540, 3207925554, -166.72518920898438, 86.97289276123047, 71.66860961914062, -1.1773956, 0.011463644, -0.42880058
546, 3208025556, 162.41064453125, 86.08039093017578, 38.209083557128906, -2.1612146, 1.4281152, 0.33860302
549, 3208075557, 158.71572875976562, 85.80572509765625, 34.359161376953125, -0.53876394, 0.40395698, -0.3537674
555, 3208175559, 165.0819854736328, 86.07743835449219, 42.7674674987793, 0.1143499, 0.06357379, -0.7868862
559, 3208242227, 175.28384399414062, 86.0411148071289, 53.278038024902344, 0.22014451, -0.09791879, -0.3260355
562, 3208292228, -179.85671997070312, 86.23023223876953, 57.66923522949219, 0.3577364, -0.03155869, -0.33046722
565, 3208342229, -177.74781799316406, 86.58775329589844, 58.768951416015625, 0.10017158, 0.0499994, -0.2511158
568, 3208392230, -175.77162170410156, 87.15380096435547, 59.3128662109375, -0.18362941, 0.02613917, -0.24972916
571, 3208442231, -170.11602783203125, 88.11529541015625, 64.20626068115234, -0.3823633, 0.070826784, -0.16377258
574, 3208492232, -153.1080322265625, 88.95770263671875, 81.47892761230469, -0.62796926, -0.04047842, 0.24746895
577, 3208542233, -104.15592193603516, 89.23102569580078, 131.32798767089844, -0.601704, 0.01410188, 0.2995777
581, 3208608901, -64.26734924316406, 88.6200180053711, 172.62557983398438, -0.5103641, 0.45806858, -0.21211624
584, 3208658902, -63.37441635131836, 88.22325897216797, 173.8301544189453, -0.06485541, 0.5813174, -0.24494076
590, 3208758904, -65.8856430053711, 87.56578826904297, 170.0894775390625, 0.028648885, 0.207302, 0.014322281
593, 3208808905, -66.14704132080078, 87.22187805175781, 168.8987579345703, -0.29459623, 0.1657752, -0.07758427
596, 3208858906, -66.05294036865234, 86.93663024902344, 167.90357971191406, -0.0797958, 0.05171531, -0.10319328
599, 3208908907, -66.0625228881836, 86.7269058227539, 167.1153106689453, -0.023692708, 0.13635688, -0.2440443
603, 3208975575, -65.28046417236328, 86.62641143798828, 167.29684448242188, -0.16870981, 0.11611822, -0.21728992
606, 3209025576, -66.4986572265625, 86.66839599609375, 166.0039520263672, -0.21871424, 0.15668057, -0.011241913
609, 3209075577, -68.5696792602539, 86.85433959960938, 163.93861389160156, -0.23273107, 0.1542521, -0.10642719
615, 3209175579, -78.0926513671875, 87.23763275146484, 155.2659454345703, -0.5183703, 0.16710342, -0.20687675
622, 3209292248, -92.2955093383789, 86.46432495117188, 145.5746612548828, -0.2513886, -0.15626852, -0.16267681
625, 3209342249, -95.38837432861328, 85.80110168457031, 146.03524780273438, -0.56487715, 0.8104505, -0.22427368
628, 3209392250, -98.64656829833984, 85.29297637939453, 144.95468139648438, -0.80152696, 0.99244434, -0.44838524
634, 3209492252, -95.70980072021484, 84.47330474853516, 145.02700805664062, 0.15419488, 0.06489475, -0.12732697
637, 3209542253, -95.95852661132812, 84.11620330810547, 143.57034301757812, -0.07122967, 0.094532125, -0.12618923
640, 3209592254, -97.65584564208984, 83.79180908203125, 141.00880432128906, -0.30790564, 0.2234279, -0.0986681
644, 3209658922, -99.7103500366211, 83.41947937011719, 138.17442321777344, -0.21946323, 0.17994447, -0.14769173
647, 3209708923, -100.72653198242188, 83.13855743408203, 136.8730926513672, -0.2004709, 0.05651849, -0.13496017
653, 3209808925, -101.8253402709961, 82.74921417236328, 135.38775634765625, -0.19643, -0.037786096, -0.20359993
662, 3209958928, -99.64328002929688, 82.5392837524414, 137.47756958007812, -0.07700871, -0.07841572, -0.08131504
666, 3210025596, -97.42919158935547, 82.65962982177734, 139.52963256835938, -0.057744127, 0.15285023, -0.2273817
669, 3210075597, -94.7744369506836, 82.78561401367188, 142.10400390625, -0.056558054, 0.19034709, -0.3702669
672, 3210125598, -92.50619506835938, 82.85625457763672, 144.47837829589844, -0.13119361, 0.21141912, -0.20183945
675, 3210175599, -90.78849792480469, 82.95677947998047, 146.21986389160156, -0.23532785, 0.28296828, -0.11152744
678, 3210225600, -89.35302734375, 83.09220886230469, 147.71669006347656, -0.33142164, 0.2508175, -0.13317013
681, 3210275601, -88.13862609863281, 83.1277084350586, 149.23744201660156, -0.3358745, 0.25172678, -0.15733242
685, 3210342269, -86.59649658203125, 83.04275512695312, 151.1275177001953, -0.45508075, 0.34778774, -0.19374561
688, 3210392270, -85.11962890625, 82.90922546386719, 152.5548858642578, -0.28781137, 0.2477906, -0.27260113
694, 3210492272, -83.62329864501953, 82.53247833251953, 154.02491760253906, -0.15134464, 0.12991455, -0.17774582
700, 3210592274, -82.659912109375, 82.29413604736328, 154.88243103027344, -0.1410255, 0.1075788, -0.064003944
703, 3210642275, -82.32261657714844, 82.26802062988281, 155.04998779296875, -0.15036164, 0.11859888, 0.0013093948
707, 3210708943, -82.23001098632812, 82.3470458984375, 154.9165802001953, -0.2854294, 0.10836601, -0.099178314
713, 3210808945, -84.59392547607422, 82.51522827148438, 152.3560028076172, -0.36591372, 0.20045525, -0.14364338
716, 3210858946, -85.47361755371094, 82.5882568359375, 151.3507843017578, -0.32230958, 0.16220336, -0.25608063
719, 3210908947, -86.34652709960938, 82.62940979003906, 150.51512145996094, -0.3071515, 0.16736773, -0.27898026
725, 3211008949, -88.37739562988281, 82.95152282714844, 147.86363220214844, -0.026911072, 0.1166561, -0.18884277
729, 3211075617, -89.09233093261719, 83.20286560058594, 146.38226318359375, -0.1601961, 0.32877606, -0.15838051
732, 3211125618, -90.04854583740234, 83.34321594238281, 144.81625366210938, -0.11725702, 0.21742591, -0.21259785
735, 3211175619, -91.90792083740234, 83.49280548095703, 142.69476318359375, -0.047608707, 0.0027430628, -0.3834858
741, 3211275621, -101.3686294555664, 83.7737045288086, 133.3065185546875, -0.24082996, 0.03600246, -0.017421722
744, 3211325622, -104.98039245605469, 83.82978057861328, 129.77294921875, -0.18422519, 0.26657405, -0.023371696
748, 3211392290, -106.61937713623047, 83.82892608642578, 128.27525329589844, -0.32873514, 0.25510862, -0.15420246
751, 3211442291, -106.1825180053711, 83.84259796142578, 128.572265625, -0.2673968, 0.07593294, -0.19657707
754, 3211492292, -106.37151336669922, 83.78315734863281, 128.34661865234375, -0.33588743, 0.07587248, -0.18683815
757, 3211542293, -106.14804077148438, 83.72252655029297, 128.41798400878906, -0.2858886, 0.09045234, -0.076771736
760, 3211592294, -104.83547973632812, 83.69693756103516, 129.62586975097656, -0.23874961, 0.052011576, -0.17049885
763, 3211642295, -103.09440612792969, 83.67969512939453, 131.32752990722656, -0.26341763, 0.13645242, -0.27891064
766, 3211692296, -101.79226684570312, 83.69286346435547, 132.5177001953125, -0.23299716, -0.0093832975, -0.32407665
770, 3211758964, -101.26827239990234, 83.75885772705078, 133.21041870117188, -0.25275806, 0.046962306, -0.09401131
773, 3211808965, -101.1710205078125, 83.83121490478516, 133.36996459960938, -0.23899446, 0.20062423, -0.09464264
776, 3211858966, -100.26274871826172, 83.93854522705078, 134.18804931640625, -0.22651295, 0.24809715, -0.230093
779, 3211908967, -99.5260009765625, 84.00531005859375, 134.9345245361328, -0.18870138, 0.16850139, -0.2571888
782, 3211958968, -99.5380859375, 84.05878448486328, 134.9784698486328, -0.24699478, 0.2805385, -0.22952175
785, 3212008969, -99.87937927246094, 84.1291732788086, 134.59584045410156, -0.24345009, 0.2783045, -0.15485382
788, 3212058970, -100.16305541992188, 84.17573547363281, 134.2016143798828, -0.23719363, 0.26155633, -0.07715607
792, 3212125638, -99.9471206665039, 84.18708801269531, 134.15402221679688, -0.20964856, 0.158256, -0.12983227
795, 3212175639, -99.8381576538086, 84.19026184082031, 134.08157348632812, -0.15685447, 0.12072449, -0.1984253
798, 3212225640, -100.39137268066406, 84.19508361816406, 133.49351501464844, -0.25128746, 0.07964259, -0.1683588
804, 3212325642, -101.87664031982422, 84.18647766113281, 131.87721252441406, -0.23204154, 0.06767917, -0.05822754
814, 3212492312, -99.39115142822266, 84.10419464111328, 134.2442626953125, -0.13908395, -0.019630138, -0.25989342
817, 3212542313, -99.84741973876953, 84.1268081665039, 134.02577209472656, -0.17864709, 0.08826258, -0.2373209
820, 3212592314, -101.0740737915039, 84.17930603027344, 133.0183868408203, -0.20303972, 0.14916417, -0.13536549
823, 3212642315, -101.8782730102539, 84.2326889038086, 132.2879180908203, -0.12462211, 0.07727849, -0.21678352
826, 3212692316, -102.29139709472656, 84.25553131103516, 132.0920867919922, -0.112896055, 0.12501024, -0.1546936
829, 3212742317, -103.04830932617188, 84.28358459472656, 131.44583129882812, -0.2603356, 0.23447078, -0.08061314
833, 3212808985, -103.39729309082031, 84.3465347290039, 130.9187469482422, -0.115331344, 0.036021013, -0.1966877
836, 3212858986, -103.88970947265625, 84.35305786132812, 130.5912628173828, -0.17613782, 0.18813856, -0.28973293
839, 3212908987, -105.30138397216797, 84.36924743652344, 129.29977416992188, -0.18693897, 0.097931534, -0.10156441
845, 3213008989, -108.10215759277344, 84.40980529785156, 126.57170867919922, -0.26844978, 0.13898595, -0.2058487
848, 3213058990, -108.6544418334961, 84.4174575805664, 125.95640563964844, -0.21260664, 0.04741157, -0.22772121
851, 3213108991, -108.96823120117188, 84.44497680664062, 125.59796142578125, -0.2066488, 0.10830097, -0.19056225
855, 3213175659, -109.19189453125, 84.54705810546875, 125.36087036132812, -0.17572813, 0.08482853, -0.20946789
858, 3213225660, -109.32264709472656, 84.6125717163086, 125.31092834472656, -0.15741481, 0.18881458, -0.17076874
861, 3213275661, -109.23271179199219, 84.6312255859375, 125.40859985351562, -0.23413664, 0.204935, -0.15147781
864, 3213325662, -108.22541046142578, 84.64862823486328, 126.24260711669922, -0.18239518, 0.20130157, -0.21333885
867, 3213375663, -107.12567138671875, 84.65470886230469, 127.15771484375, -0.085904524, 0.13952473, -0.33558464
870, 3213425664, -106.98754119873047, 84.63506317138672, 127.34054565429688, -0.11325167, 0.063687444, -0.2441082
873, 3213475665, -107.75728607177734, 84.5860824584961, 126.66422271728516, -0.11358739, 0.098256744, -0.10306358
880, 3213592334, -107.51465606689453, 84.58644104003906, 126.82671356201172, -0.15271723, 0.035275374, -0.06640148
883, 3213642335, -107.4306411743164, 84.6240005493164, 126.94550323486328, -0.17852248, -0.03261635, -0.26288033
886, 3213692336, -107.93038177490234, 84.7150650024414, 126.96463775634766, -0.03027617, -0.29146123, -0.25376034
889, 3213742337, -110.3671875, 84.74290466308594, 126.02317810058594, -0.17989507, -0.06416353, -0.20369434
892, 3213792338, -113.77030181884766, 84.76730346679688, 124.18988800048828, -0.57965344, 0.502948, -0.10056877
896, 3213859006, -116.35850524902344, 84.89838409423828, 122.10497283935547, -0.3710134, 0.43178356, -0.13030148
899, 3213909007, -115.97864532470703, 84.97172546386719, 122.30508422851562, -0.18500368, 0.0024060053, -0.21617413
902, 3213959008, -115.7619400024414, 84.95337677001953, 122.81539154052734, -0.22116786, 0.018982844, -0.3143654
908, 3214059010, -117.865966796875, 84.86721801757812, 121.36041259765625, -0.055913776, 0.06863211, -0.084080696
911, 3214109011, -118.12531280517578, 84.81802368164062, 121.28176879882812, -0.12715697, 0.17059034, -0.14567852
918, 3214225680, -117.49208068847656, 84.80559539794922, 121.66743469238281, -0.13291499, 0.09529397, -0.20090389
921, 3214275681, -117.98460388183594, 84.7841796875, 121.17894744873047, -0.19808412, 0.040851798, -0.1433878
930, 3214425684, -116.9655990600586, 84.77632904052734, 122.0711898803711, -0.20681396, 0.025749922, -0.22731304
933, 3214475685, -116.38665771484375, 84.75312805175781, 122.65630340576172, -0.18890399, 0.079096764, -0.18229103
937, 3214542353, -115.99070739746094, 84.70006561279297, 123.12198638916016, -0.12882906, 0.13902047, -0.13220787
940, 3214592354, -115.04428100585938, 84.69478607177734, 123.99588775634766, -0.103133015, 0.15812223, -0.20106792
943, 3214642355, -114.26704406738281, 84.67222595214844, 124.663818359375, -0.14991696, 0.13769561, -0.14038563
946, 3214692356, -113.37276458740234, 84.66895294189453, 125.38179779052734, -0.10947106, 0.02260856, -0.11681938
949, 3214742357, -112.94535827636719, 84.65327453613281, 125.8047103881836, -0.20769952, 0.13326356, -0.15148354
952, 3214792358, -112.32788848876953, 84.6349105834961, 126.28855895996094, -0.19633915, 0.087897696, -0.19836807
955, 3214842359, -111.69510650634766, 84.59503173828125, 126.89019012451172, -0.16809203, 0.04888642, -0.26174545
959, 3214909027, -110.90582275390625, 84.55317687988281, 127.66706848144531, -0.0680949, -0.018697865, -0.27643204
962, 3214959028, -111.16773986816406, 84.52912139892578, 127.44257354736328, -0.11469992, 0.015008001, -0.20403099
965, 3215009029, -111.36398315429688, 84.54737854003906, 127.2125473022461, 0.043479975, 0.009497736, -0.13798618
968, 3215059030, -111.4296875, 84.6030502319336, 127.21503448486328, -0.100080945, 0.08818391, -0.18231869
971, 3215109031, -111.677734375, 84.66649627685547, 126.92354583740234, -0.13866945, 0.093278326, -0.17408943
974, 3215159032, -112.28882598876953, 84.68655395507812, 126.28599548339844, -0.14322934, 0.16807202, -0.19305134
977, 3215209033, -111.71298217773438, 84.7121353149414, 126.78387451171875, -0.13237096, 0.09087143, -0.15602112
981, 3215275701, -111.02460479736328, 84.6666030883789, 127.2552490234375, -0.06939183, 0.10073114, -0.098174095
987, 3215375703, -112.38410186767578, 84.60806274414062, 125.89104461669922, -0.109255925, 0.083683476, -0.32718277
990, 3215425704, -115.5450668334961, 84.66976165771484, 122.580078125, -0.24533877, 0.0029009746, -0.2729473
993, 3215475705, -118.7669906616211, 84.6949691772461, 119.23230743408203, -0.3154703, 0.029270362, -0.10489845
1000, 3215592374, -118.4615707397461, 84.74461364746094, 119.29590606689453, -0.19616234, 0.0010622453, -0.24122715
1003, 3215642375, -117.89152526855469, 84.75334930419922, 119.82682037353516, -0.09736504, 0.025652358, -0.23948765
1006, 3215692376, -118.10501098632812, 84.75069427490234, 119.74143981933594, -0.035261404, 0.048742477, -0.15906811
1009, 3215742377, -117.97227478027344, 84.80933380126953, 119.90248107910156, -0.100723095, 0.18160719, -0.09479046
1012, 3215792378, -117.47132110595703, 84.89715576171875, 120.06475830078125, -0.107102044, 0.11526172, -0.082458496
1015, 3215842379, -117.54621887207031, 84.90803527832031, 119.63543701171875, -0.14512707, 0.09837509, -0.14820671
1018, 3215892380, -117.84058380126953, 84.91188049316406, 119.25211334228516, -0.22587481, 0.057507873, -0.16851807
1025, 3216009049, -118.9817886352539, 84.92677307128906, 118.00858306884766, -0.16921227, -0.067715265, -0.26234913
1028, 3216059050, -119.77828216552734, 84.92456817626953, 117.28346252441406, -0.16447882, -0.00468919, -0.1332264
1031, 3216109051, -119.83183288574219, 84.96775817871094, 117.27337646484375, -0.10041051, 0.012517396, -0.11089897
1034, 3216159052, -119.66738891601562, 84.99813842773438, 117.51840209960938, -0.03616082, 0.046779584, -0.11750889
1037, 3216209053, -119.37250518798828, 84.9917984008789, 117.84870147705078, -0.110897966, 0.113871135, -0.059760094
1047, 3216375723, -119.99078369140625, 85.01716613769531, 116.5663070678711, -0.26442376, 0.11301944, -0.151124
1050, 3216425724, -119.39891815185547, 84.97527313232422, 116.77613830566406, -0.14706348, 0.08882606, -0.17368793
1053, 3216475725, -117.5341796875, 84.99559020996094, 118.46347045898438, 0.077901416, -0.05213451, -0.49820518
1056, 3216525726, -118.57361602783203, 84.96985626220703, 118.1115493774414, -0.1264281, -0.07221112, -0.28638554
1062, 3216625728, -120.85066223144531, 84.56816101074219, 116.78805541992188, -0.006851566, 0.07883481, 0.09243488
1069, 3216742397, -112.77112579345703, 83.87740325927734, 125.40521240234375, 0.013120658, 0.012945758, -0.054802895
1072, 3216792398, -109.48345947265625, 83.51010131835938, 128.3166046142578, 0.25053355, 0.056060627, 0.015244484
1075, 3216842399, -106.55347442626953, 83.23143768310547, 130.58767700195312, 0.11048782, 0.11982921, -0.096178055
1078, 3216892400, -104.65830993652344, 83.0436019897461, 131.7139129638672, 0.031073442, 0.1405682, -0.35748482
1081, 3216942401, -104.48383331298828, 82.93889617919922, 131.14114379882812, -0.24727897, 0.33643135, -0.3531046
1088, 3217059070, -108.92587280273438, 82.7873306274414, 125.94786834716797, -0.31974524, -0.0013543768, -0.19387913
1091, 3217109071, -112.34707641601562, 82.72101593017578, 122.73435974121094, -0.36826912, -0.09113685, -0.25878334
1094, 3217159072, -114.38301849365234, 82.70281982421875, 121.0047836303711, -0.3212191, -0.06186682, -0.31812
1097, 3217209073, -115.51905822753906, 82.7673568725586, 120.0319595336914, -0.32470554, -0.23406857, -0.34873295
1100, 3217259074, -116.17220306396484, 82.87307739257812, 119.42807006835938, -0.16086641, -0.16824648, -0.276062
1110, 3217425744, -114.20479583740234, 83.74536895751953, 120.76449584960938, 0.11862749, 0.05626648, 0.16944408
1113, 3217475745, -114.25129699707031, 84.08285522460938, 120.72134399414062, -0.09700898, 0.47946402, 0.10278511
1116, 3217525746, -113.37931823730469, 84.28433990478516, 121.36742401123047, -0.03778241, 0.4658664, -0.31561852
1119, 3217575747, -113.57612609863281, 84.41001892089844, 120.98133850097656, -0.088720895, 0.41091147, -0.33552456
1126, 3217692416, -118.24482727050781, 84.31938934326172, 115.68574523925781, 0.10661154, -0.26956064, -0.15192509
1129, 3217742417, -123.5897216796875, 84.2793960571289, 110.85868072509766, -0.20837174, -0.16646853, -0.08130455
1132, 3217792418, -127.81621551513672, 84.23812866210938, 106.82861328125, -0.46273842, -0.10181451, -0.134799
1135, 3217842419, -128.11175537109375, 84.21111297607422, 106.30424499511719, -0.11357219, -0.1797167, -0.14603615
1141, 3217942421, -123.2734375, 84.36570739746094, 110.98255157470703, 0.055438142, -0.16521306, -0.17010689
1144, 3217992422, -122.32366180419922, 84.492919921875, 112.09223175048828, -0.082932025, -0.0068840873, -0.21167946
1148, 3218059090, -123.04045104980469, 84.6261215209961, 111.97400665283203, -0.17438604, 0.06619705, -0.13949299
1151, 3218109091, -124.27903747558594, 84.54928588867188, 111.43328094482422, -0.27170804, 0.20241132, -0.02907753
1154, 3218159092, -124.66535186767578, 84.38933563232422, 111.80181884765625, -0.23617072, 0.2685041, -0.09719372
1160, 3218259094, -118.11854553222656, 84.19147491455078, 118.24299621582031, -0.13223116, 0.28149736, -0.16960526
1163, 3218309095, -112.34222412109375, 83.95846557617188, 123.28831481933594, 0.4364228, -0.17871615, -0.58873177
1166, 3218359096, -109.99684143066406, 83.68888092041016, 125.5899429321289, 0.1995328, -0.1612903, -0.37412453
1170, 3218425764, -110.34326171875, 83.6477279663086, 125.1023178100586, 0.124787286, -0.13314757, -0.16217804
1173, 3218475765, -111.02941131591797, 83.70742797851562, 124.52387237548828, -0.1848023, -0.032205086, -0.06364536
1176, 3218525766, -110.67950439453125, 83.76961517333984, 124.76985168457031, -0.22981882, -0.0011544444, -0.116083145
1182, 3218625768, -108.05655670166016, 83.75615692138672, 127.0593490600586, -0.16769841, 0.045047026, -0.19793129
1185, 3218675769, -106.79033660888672, 83.71890258789062, 128.2299346923828, -0.09883843, 0.032625403, -0.11131096
1189, 3218742437, -106.16676330566406, 83.70195007324219, 128.8148193359375, -0.06268376, 0.04340029, -0.21173286
1192, 3218792438, -106.31255340576172, 83.70817565917969, 128.7143096923828, -0.11751808, 0.066611, -0.27261543
1195, 3218842439, -106.63529205322266, 83.71858978271484, 128.50010681152344, -0.06511089, -0.021361692, -0.18704128
1198, 3218892440, -107.42984008789062, 83.73052215576172, 127.82748413085938, -0.15140812, 0.016483856, -0.20915031
1201, 3218942441, -107.9906997680664, 83.74095153808594, 127.36587524414062, -0.08324215, -0.019287491, -0.18595695
1204, 3218992442, -108.17103576660156, 83.73046112060547, 127.27277374267578, -0.14429985, 0.034922894, -0.07242012
1211, 3219109111, -106.20997619628906, 83.7063980102539, 129.222412109375, -0.091317445, -0.025975, -0.14310932
1214, 3219159112, -105.6986083984375, 83.64418029785156, 129.80270385742188, -0.058439475, 0.029750356, -0.15221786
1220, 3219259114, -102.60352325439453, 83.39755249023438, 132.86544799804688, -0.07651385, 0.13009202, -0.100964546
1223, 3219309115, -99.80132293701172, 83.20211791992188, 135.2970733642578, 0.14597765, 0.1702231, -0.37660217
1226, 3219359116, -98.21656036376953, 83.17208862304688, 136.8116455078125, 0.33994344, -0.09707179, -0.37535095
1229, 3219409117, -101.13170623779297, 83.37493133544922, 134.1124267578125, -0.12058949, -0.05243502, -0.18515873
1236, 3219525786, -112.19694519042969, 83.63992309570312, 123.29730224609375, -0.4134232, 0.046243712, 0.04785347
1239, 3219575787, -111.43424224853516, 83.5133285522461, 124.016357421875, -0.38509372, -0.006612966, -0.20259094
1242, 3219625788, -108.29801940917969, 83.35061645507812, 126.92400360107422, 4.062348E-4, -0.15135527, -0.3640709
1245, 3219675789, -106.06925964355469, 83.237548828125, 129.24839782714844, 0.01860086, -0.20153984, -0.3644743
1248, 3219725790, -105.81934356689453, 83.20597839355469, 129.4960479736328, 0.07031528, -0.1137539, -0.21707344
1252, 3219792458, -105.73031616210938, 83.24962615966797, 129.53741455078125, 0.1384988, 0.029186992, -0.13249588
1258, 3219892460, -104.95304870605469, 83.37555694580078, 130.32872009277344, -0.101172246, 0.10228344, -0.11129856
1261, 3219942461, -104.99667358398438, 83.4229965209961, 130.11172485351562, -0.12009541, 0.10708606, -0.12458801
1264, 3219992462, -105.09646606445312, 83.43804168701172, 129.90927124023438, -0.1379664, 0.1356898, -0.19488621
1267, 3220042463, -105.3153305053711, 83.41290283203125, 129.64698791503906, -0.14175884, 0.041497305, -0.25741673
1270, 3220092464, -105.9957504272461, 83.36685180664062, 128.97206115722656, -0.07777178, 0.007524228, -0.15943432
1277, 3220209133, -106.48704528808594, 83.24187469482422, 128.4992218017578, -0.034001574, -0.1072204, -0.18514538
1280, 3220259134, -106.32548522949219, 83.20909881591797, 128.64117431640625, 0.014878475, -0.09088506, -0.22298336
1283, 3220309135, -105.98201751708984, 83.22639465332031, 128.9666290283203, 0.0933541, -0.14277203, -0.25986385
1286, 3220359136, -105.9695053100586, 83.29884338378906, 129.0789794921875, -0.022526195, -0.12516491, -0.17352962
1289, 3220409137, -106.38119506835938, 83.37557983398438, 128.72325134277344, -0.1023553, 0.0030620156, 0.003455162
1296, 3220525806, -105.05559539794922, 83.52955627441406, 129.65164184570312, -0.1339055, 0.015054268, -0.26325798
1299, 3220575807, -105.39954376220703, 83.57660675048828, 129.40725708007812, -0.14723827, -0.0028435318, -0.2725954
1302, 3220625808, -106.42949676513672, 83.6095962524414, 128.5198516845703, -0.12179277, -0.016345391, -0.1847601
1305, 3220675809, -107.1396484375, 83.60472106933594, 128.0330352783203, -0.09390684, -0.034130316, -0.11377525
1308, 3220725810, -106.85333251953125, 83.548828125, 128.51419067382812, 0.011427323, -0.10184133, -0.1231575
1311, 3220775811, -106.39537048339844, 83.48675537109375, 129.28370666503906, 0.009005672, -0.023539938, -0.13709068
1314, 3220825812, -105.49095916748047, 83.44193267822266, 130.33657836914062, -0.043737017, 0.11508101, -0.16615391
1318, 3220892480, -103.59575653076172, 83.4734878540039, 131.81285095214844, 0.11272105, 0.030980684, -0.22747612
1321, 3220942481, -102.80709075927734, 83.51529693603516, 132.2161102294922, -8.362737E-4, 0.028299423, -0.24582672
1327, 3221042483, -102.04654693603516, 83.68130493164062, 132.5707550048828, -0.038247872, -0.058097165, -0.19721413
1330, 3221092484, -102.40726470947266, 83.84288787841797, 132.08604431152344, -0.069178715, -0.011353453, -0.2552538
1337, 3221209153, -103.15441131591797, 84.04596710205078, 130.91944885253906, -0.12214246, -0.020212611, -0.04902363
1340, 3221259154, -103.298583984375, 83.9905776977539, 130.9314422607422, -0.12251192, -0.12018694, -0.08906841
1343, 3221309155, -103.94486236572266, 83.97858428955078, 130.9119110107422, -0.72225744, -0.09952529, 0.13691139
1346, 3221359156, -105.23167419433594, 83.8369369506836, 131.57261657714844, -4.4953074, 1.0887438, -0.0076389313
1349, 3221409157, -104.4903793334961, 82.29202270507812, 134.19888305664062, -4.925865, 0.21050517, 0.057540894
1352, 3221459158, -103.5709457397461, 79.46955871582031, 137.74903869628906, -4.8280945, 0.011407989, 1.3749142
1355, 3221509159, -99.26752471923828, 75.14090728759766, 143.74752807617188, -3.0991662, -0.5092107, 2.6162786
1359, 3221575827, -90.31314849853516, 67.76078796386719, 153.6096954345703, -0.25425583, -1.1922617, 2.9108782
1365, 3221675829, -80.42486572265625, 54.64287567138672, 165.44039916992188, 1.5833464, -0.94588536, 1.6803274
1368, 3221725830, -78.1785888671875, 48.18722915649414, 168.84262084960938, 1.8467392, -0.9339452, 0.6683645
1371, 3221775831, -77.9443359375, 42.11210250854492, 171.18470764160156, 1.9853773, -0.6836798, 0.53486156
1374, 3221825832, -79.00191497802734, 36.314666748046875, 173.07098388671875, 1.4059058, -0.26512605, 0.86583805
1378, 3221892500, -80.95308685302734, 28.507335662841797, 175.43722534179688, 1.6128968, 0.23484176, 0.2903118
1381, 3221942501, -82.7946548461914, 22.537288665771484, 177.01719665527344, 1.3612777, 0.45747823, 0.38039207
1384, 3221992502, -84.22489929199219, 16.706058502197266, 178.5664825439453, 1.6071988, 0.039365243, -0.74292946
1387, 3222042503, -85.30146789550781, 11.479364395141602, 179.80426025390625, 1.3607621, 0.46035343, -1.9105849
1393, 3222142505, -87.95856475830078, 3.946890115737915, -178.85562133789062, 0.56147075, 0.5192335, -2.764574
1396, 3222192506, -89.3836441040039, 1.6142898797988892, -178.6718292236328, 0.07538148, 0.37390035, -1.7095747
1403, 3222309175, -89.95478820800781, -1.995336890220642, -178.87539672851562, -0.019891229, 0.45785424, -0.7829504
1406, 3222359176, -89.55341339111328, -3.1031782627105713, -179.03347778320312, -0.11364534, 0.15708959, -0.97782135
1409, 3222409177, -89.55545043945312, -3.9618282318115234, -179.38661193847656, -0.105657116, 0.09722984, -1.1471062
1412, 3222459178, -89.46002960205078, -4.442135810852051, 179.88624572753906, -0.027015222, 0.28300995, -1.0948935
1415, 3222509179, -88.97366333007812, -4.467787742614746, 179.21641540527344, -0.05266228, 0.37901032, -0.7498932
1418, 3222559180, -88.59547424316406, -4.503712177276611, 178.60232543945312, -0.12724508, 0.72147775, 0.008494377
1425, 3222675849, -88.25667572021484, -5.062943935394287, 177.3720703125, -0.17219172, 0.3396721, -0.31606007
1428, 3222725850, -88.41450500488281, -5.3956298828125, 177.21466064453125, -0.062185075, -0.18243721, -0.47658348
1431, 3222775851, -88.38224029541016, -5.6241960525512695, 177.13543701171875, -0.27834952, 0.09076708, -0.2882719
1434, 3222825852, -88.22183227539062, -5.737753868103027, 176.93844604492188, -0.09736668, 0.11992363, -0.08732796
1440, 3222925854, -87.85987854003906, -5.6348090171813965, 176.47364807128906, -1.7900593E-4, 0.072928324, -0.18344307
1444, 3222992522, -87.73968505859375, -5.527105808258057, 176.42738342285156, -0.18334876, -0.013112564, -0.16286755
1447, 3223042523, -87.63327026367188, -5.486049175262451, 176.3690185546875, -0.15241522, 0.20353416, 0.32261753
1450, 3223092524, -87.23983001708984, -5.442233562469482, 176.3722686767578, -0.09108974, 0.035145387, -0.19275951
1453, 3223142525, -87.18634033203125, -5.449863433837891, 176.33718872070312, 0.0149042355, 0.091250405, 0.07900715
1456, 3223192526, -87.06835174560547, -5.432558059692383, 176.40196228027344, -0.10269068, -0.024157833, -0.08298302
1459, 3223242527, -86.91024780273438, -5.428895473480225, 176.48248291015625, -0.18008196, 0.17920296, -0.18056679
1463, 3223309195, -86.92036437988281, -5.419914245605469, 176.56430053710938, -0.1770592, 0.09737363, -0.022577286
1466, 3223359196, -86.92648315429688, -5.370917320251465, 176.60894775390625, -0.08747937, 0.069720194, -0.021148682
1469, 3223409197, -86.95866394042969, -5.363757133483887, 176.65350341796875, 0.050277844, 0.04352392, -0.059781075
1475, 3223509199, -87.11644744873047, -5.343029022216797, 176.9506072998047, -0.074383326, 0.18518007, 0.098176956
1478, 3223559200, -87.20530700683594, -5.396080493927002, 177.07553100585938, -0.103256054, 0.22688879, 0.1789999
1481, 3223609201, -87.16503143310547, -5.45456075668335, 177.17941284179688, -0.1389299, 0.24761668, 0.035266876
1485, 3223675869, -87.2276382446289, -5.575009346008301, 177.25843811035156, -0.11482109, 0.21151356, 0.004732132
1488, 3223725870, -87.27533721923828, -5.633428573608398, 177.25518798828125, -0.08045536, 0.11311743, -0.17261505
1491, 3223775871, -87.3405990600586, -5.612225532531738, 177.23524475097656, -0.13912153, 0.12855929, -0.059910774
1494, 3223825872, -87.29206848144531, -5.60134220123291, 177.239990234375, -0.086644016, 0.08975344, -0.20196915
1497, 3223875873, -87.34249877929688, -5.5746989250183105, 177.24891662597656, -0.123998754, 0.100400135, -0.16769028
1500, 3223925874, -87.36066436767578, -5.497095108032227, 177.26300048828125, -0.21606977, 0.19726793, 0.07834053
1503, 3223975875, -87.36182403564453, -5.45764684677124, 177.2286376953125, -0.10135908, 0.24991082, 0.009906769
1507, 3224042543, -87.37442779541016, -5.40818977355957, 177.1566619873047, -0.10539376, 0.19356851, 0.08932018
1510, 3224092544, -87.37339782714844, -5.418068885803223, 177.0849609375, 0.0043939855, 0.15502936, -0.038866997
1513, 3224142545, -87.40498352050781, -5.466717720031738, 177.07566833496094, -0.039561763, 0.08909377, -0.0681448
1516, 3224192546, -87.3536148071289, -5.4879302978515625, 177.08885192871094, -0.12532882, 0.118204005, -0.15574169
1519, 3224242547, -87.40219116210938, -5.458672523498535, 177.0606689453125, -0.14647035, 0.18045144, -0.11335945
1522, 3224292548, -87.39454650878906, -5.401241302490234, 177.03619384765625, -0.060754202, 0.13300528, -0.11422157
1526, 3224359216, -87.32662963867188, -5.306847095489502, 177.00555419921875, -0.06691889, 0.112993285, 0.021098137
1529, 3224409217, -87.36761474609375, -5.272414684295654, 177.003662109375, -0.012455874, 0.1224006, 0.20121956
1532, 3224459218, -87.30023193359375, -5.287295341491699, 177.0503387451172, -0.09697551, 0.13115883, 0.085865974
1538, 3224559220, -87.26766967773438, -5.335684299468994, 177.1094512939453, -0.024117691, 0.155714, -0.060307503
1541, 3224609221, -87.23870086669922, -5.343253135681152, 177.14956665039062, -0.14914489, 0.22777566, -0.0744915
1544, 3224659222, -87.30960083007812, -5.353177547454834, 177.15956115722656, -0.09922832, 0.19720392, -0.047463417
1548, 3224725890, -87.29173278808594, -5.264327049255371, 177.13914489746094, -0.044804092, 0.15732273, -0.041980743
1551, 3224775891, -87.35643768310547, -5.218275547027588, 177.11636352539062, -0.05844931, 0.13148323, 0.0382576
1554, 3224825892, -87.35112762451172, -5.194557189941406, 177.15411376953125, -0.09131415, 0.17202927, 0.039652824
1557, 3224875893, -87.49192810058594, -5.219621181488037, 177.1758575439453, -0.10822213, 0.16635865, 0.17313957
1560, 3224925894, -87.42033386230469, -5.27478551864624, 177.16773986816406, -0.053207804, 0.19942766, -0.03072834
1563, 3224975895, -87.4164810180664, -5.307373523712158, 177.1826171875, -0.058452785, 0.23055248, 0.0439682
1567, 3225042563, -87.42619323730469, -5.387986660003662, 177.17245483398438, -0.0343804, 0.268861, -0.010390282
1573, 3225142565, -87.42202758789062, -5.495635986328125, 177.15858459472656, -0.058475237, 0.18108518, -0.16234684
1576, 3225192566, -87.42828369140625, -5.519718170166016, 177.1781463623047, -0.056274388, 0.18802772, -0.14740562
1579, 3225242567, -87.41018676757812, -5.49598503112793, 177.17758178710938, -0.048085432, 0.2307937, -0.15438747
1582, 3225292568, -87.41667938232422, -5.446451187133789, 177.17124938964844, -0.0979103, 0.21150523, -0.055604935
1585, 3225342569, -87.37447357177734, -5.418865203857422, 177.19308471679688, -0.095287286, 0.2159873, -0.07532215
1589, 3225409237, -87.40388488769531, -5.337245464324951, 177.23068237304688, -0.095719144, 0.12590097, -0.0013399124
1592, 3225459238, -87.45124816894531, -5.289745807647705, 177.2503204345703, -0.028894274, 0.261224, 0.13039398
1595, 3225509239, -87.47950744628906, -5.282470703125, 177.270751953125, -0.010393268, 0.16708764, 0.12507057
1598, 3225559240, -87.36992645263672, -5.258175849914551, 177.28250122070312, -0.066935875, 0.17509778, 0.008503914
1601, 3225609241, -87.36617279052734, -5.266971111297607, 177.298828125, -0.04479655, 0.34466535, -0.12104511
1607, 3225709243, -87.07691192626953, -5.367166996002197, 177.245849609375, -0.5461371, 2.0242028, -0.3801794
1611, 3225775911, -88.18279266357422, -5.346109390258789, 176.11529541015625, -0.014070699, 1.9515575, 0.80981636
1614, 3225825912, -87.86026000976562, -5.360432147979736, 174.91036987304688, -0.22216772, 3.1698568, -0.34309483
1617, 3225875913, -88.54264068603516, -5.613556861877441, 172.9111785888672, -0.04577548, 3.0830483, 0.12985802
1620, 3225925914, -89.85718536376953, -5.9199700355529785, 169.87779235839844, 0.5429522, 3.0344555, 0.4066944
1623, 3225975915, -90.18569946289062, -6.153452396392822, 165.84666442871094, 1.1916736, 3.0254297, 0.3194704
1626, 3226025916, -90.25883483886719, -6.214118003845215, 161.10153198242188, 1.763068, 2.2817488, -0.5434904
1630, 3226092584, -90.87823486328125, -6.166485786437988, 153.6704864501953, 2.3693056, 0.72329843, -0.6486273
1633, 3226142585, -90.87763214111328, -6.015052318572998, 147.72097778320312, 2.1638675, -0.4831664, 0.14396095
1636, 3226192586, -88.83098602294922, -5.368987083435059, 141.73974609375, 1.1264007, -1.4860829, -0.29531765
1642, 3226292588, -86.39440155029297, -4.576695442199707, 130.37217712402344, 0.8501513, -0.83110654, 0.13505363
1645, 3226342589, -87.84143829345703, -4.759429931640625, 125.1066665649414, 0.81299573, -1.2437278, -0.29068756
1648, 3226392590, -89.23250579833984, -4.992958068847656, 120.01886749267578, -0.36978543, -0.9335232, -0.20985794
1652, 3226459258, -90.01935577392578, -4.829545497894287, 113.15616607666016, -0.48768002, -0.99269605, -0.19891453
1655, 3226509259, -89.66531372070312, -4.527164936065674, 108.36051177978516, -0.2319271, -0.53382736, 0.8509922
1658, 3226559260, -88.52153015136719, -4.113430023193359, 103.80696105957031, -0.36185318, -0.4510393, -0.37723732
1661, 3226609261, -87.40758514404297, -3.7608284950256348, 99.51805877685547, -0.6187838, -0.09412891, 0.119506836
1664, 3226659262, -86.57781982421875, -3.4744741916656494, 95.36763763427734, 0.20651993, -0.6695422, -0.28442192
1670, 3226759264, -87.0608901977539, -4.011953353881836, 87.59757232666016, 0.07531336, 0.7570491, 1.0488243
1677, 3226875933, -87.58708190917969, -4.746337413787842, 78.48477172851562, -1.4871781, 0.14133775, 0.26145458
1683, 3226975935, -86.19100952148438, -5.283313751220703, 73.00566864013672, -1.467262, 0.31337836, -0.27288914
1686, 3227025936, -85.10096740722656, -5.123344898223877, 70.82228088378906, -2.317603, 0.64070123, -1.3928165
1689, 3227075937, -84.72328186035156, -4.887343406677246, 69.26085662841797, -1.9935166, 0.9978012, -0.77667904
1692, 3227125938, -84.50231170654297, -4.452658653259277, 68.45862579345703, -2.0839753, 0.8885136, -0.61745644
1696, 3227192606, -84.54524230957031, -3.98073673248291, 68.4203872680664, -1.4542952, 0.8420902, -0.21026325
1699, 3227242607, -84.76726531982422, -3.5795116424560547, 68.95796203613281, -0.926541, 1.0023966, -0.01488018
1702, 3227292608, -85.0428466796875, -3.235128402709961, 69.6121826171875, -0.31381956, 0.754331, 0.30778885
1705, 3227342609, -85.03228759765625, -2.9154090881347656, 70.3697280883789, -0.096398905, 0.63192904, 0.39234066
1711, 3227442611, -84.73658752441406, -2.690709114074707, 71.36193084716797, -0.04382061, 0.6623963, 0.38261318
1718, 3227559280, -84.22920989990234, -3.079676389694214, 72.4537353515625, -0.08499281, 0.6649419, -0.44371986
1721, 3227609281, -84.63127899169922, -3.329413414001465, 72.84364318847656, 0.08587614, 0.68883586, 0.086218834
1724, 3227659282, -84.23853302001953, -3.417147397994995, 73.29486846923828, 0.2998833, 0.67344743, -0.20272636
1727, 3227709283, -84.1529541015625, -3.457913398742676, 73.75410461425781, 0.30604735, 0.6863859, 0.039853096
1730, 3227759284, -84.12206268310547, -3.5160367488861084, 74.05821228027344, 0.2540931, 0.76467067, -0.2302084
1733, 3227809285, -83.94017791748047, -3.4775278568267822, 74.25840759277344, 0.059042737, 0.740314, -0.18741703
1737, 3227875953, -84.044921875, -3.4355411529541016, 74.30387878417969, -0.053306498, 0.55398357, 0.1525116
1740, 3227925954, -83.83589935302734, -3.3698761463165283, 74.45579528808594, -0.0083748065, 0.6793129, -0.10903263
1743, 3227975955, -83.85202026367188, -3.3549933433532715, 74.62786865234375, -6.7702075E-4, 0.7125258, 0.07994366
1746, 3228025956, -83.67839813232422, -3.36187481880188, 74.83029174804688, -0.099661075, 0.60964656, 0.20337296
1752, 3228125958, -83.49964141845703, -3.4334731101989746, 75.23045349121094, -0.14141777, 0.6348204, -0.025292397
1755, 3228175959, -83.34966278076172, -3.4850738048553467, 75.48204803466797, -0.04685614, 0.66298836, -0.17049313
1759, 3228242627, -83.43111419677734, -3.5998764038085938, 75.85718536376953, -0.066982366, 0.7059187, -0.21642971
1762, 3228292628, -83.61315155029297, -3.660709857940674, 76.08088684082031, -0.26128978, 0.46452072, -0.04295349
1765, 3228342629, -83.44877624511719, -3.6309077739715576, 76.42382049560547, -0.17917849, 0.50908965, 0.14403343
1771, 3228442631, -83.54715728759766, -3.76825213432312, 77.21580505371094, 0.2494237, 0.62930965, 0.2846594
1774, 3228492632, -83.7419662475586, -3.991391897201538, 77.56878662109375, 0.36250427, 0.8629243, -0.029556274
1778, 3228559300, -83.94522857666016, -4.286962985992432, 77.84309387207031, 0.22419468, 0.79292005, -0.028941154
1781, 3228609301, -83.82447052001953, -4.385534763336182, 77.9244613647461, 0.1589262, 0.729863, -0.1824131
1784, 3228659302, -83.49163818359375, -4.393885612487793, 77.99947357177734, 0.1467633, 0.66072595, 0.020728111
1793, 3228809305, -83.13636779785156, -4.347271919250488, 78.0496826171875, -0.08290185, 0.47200215, 0.029184341
1796, 3228859306, -83.06975555419922, -4.348854064941406, 77.99335479736328, -0.22629726, 0.57791865, 0.04945469
1800, 3228925974, -83.13606262207031, -4.494189739227295, 78.00932312011719, -0.22491103, 0.5797354, -0.053028107
1803, 3228975975, -82.97040557861328, -4.558725833892822, 78.15522003173828, -0.31379208, 0.60683656, 0.044114113
1806, 3229025976, -82.80773162841797, -4.592645645141602, 78.42818450927734, -0.19350702, 0.63667464, -0.04745388
1809, 3229075977, -82.77572631835938, -4.648965358734131, 78.71929931640625, -0.27617013, 0.6117268, 0.21413803
1812, 3229125978, -82.34440612792969, -4.683521270751953, 79.14450073242188, -0.045972593, 0.5643025, 0.08039379
1815, 3229175979, -82.2898178100586, -4.814517974853516, 79.59497833251953, -0.01766557, 0.4563341, 0.12526798
1819, 3229242647, -82.25667572021484, -5.012167453765869, 80.17207336425781, 0.3201186, 0.5642949, -0.121741295
1822, 3229292648, -82.10449981689453, -5.11754035949707, 80.51469421386719, 0.38175565, 0.57736325, -0.062740326
1828, 3229392650, -82.09152221679688, -5.24259090423584, 80.84793853759766, 0.27464044, 0.5398752, -0.30546474
1831, 3229442651, -82.2400894165039, -5.271340370178223, 80.96198272705078, 0.12098332, 0.50146896, -0.065413475
1834, 3229492652, -82.26227569580078, -5.230778217315674, 81.08811950683594, 0.3109823, 0.56187624, -0.06621647
1837, 3229542653, -82.36001586914062, -5.233023166656494, 81.11894989013672, 0.27965784, 0.5077935, 0.0049676895
1841, 3229609321, -82.28083801269531, -5.236815929412842, 81.19924926757812, 0.16258466, 0.483501, -0.22712803
1844, 3229659322, -82.36602020263672, -5.160318374633789, 81.2492904663086, 0.22341573, 0.5709254, -0.038104057
1847, 3229709323, -82.36315155029297, -5.057966232299805, 81.26691436767578, 0.293388, 0.5725642, -0.06501961
1850, 3229759324, -82.26402282714844, -4.936160087585449, 81.2771224975586, 0.17240582, 0.5259651, 0.094283104
1853, 3229809325, -82.009033203125, -4.780313968658447, 81.25919342041016, 0.08490073, 0.5999021, -0.1395855
1856, 3229859326, -82.14533233642578, -4.7117228507995605, 81.20347595214844, 0.17333609, 0.59518415, 0.21815777
1859, 3229909327, -81.99324035644531, -4.6536359786987305, 81.20155334472656, 0.10828175, 0.50360173, -0.10719776
1863, 3229975995, -81.82627868652344, -4.5167646408081055, 81.24073028564453, -0.069155805, 0.5574543, -0.3745699
1866, 3230025996, -82.13172912597656, -4.440084934234619, 81.22264862060547, 0.052009452, 0.5874001, 0.13550758
1869, 3230075997, -81.94007110595703, -4.312126159667969, 81.22718811035156, -0.06321282, 0.47284523, -0.10821819
1872, 3230125998, -81.9663314819336, -4.150452136993408, 81.21894073486328, -0.22220473, 0.47914094, -0.12137413
1875, 3230175999, -82.0180892944336, -3.9868595600128174, 81.39458465576172, -0.4491323, 0.5357883, -0.10857296
1878, 3230226000, -82.1292495727539, -3.792088270187378, 81.70407104492188, -0.7098946, 0.45600867, 0.08255482
1881, 3230276001, -82.15586853027344, -3.53310489654541, 82.26036834716797, -1.1274414, 0.3393121, 1.5187941
1885, 3230342669, -80.62974548339844, -3.604107618331909, 83.6683120727539, -0.80103934, -0.23512557, 2.6233883
1891, 3230442671, -77.2009048461914, -6.8797383308410645, 87.82721710205078, 0.59511554, -0.53034794, 2.4421253
1894, 3230492672, -74.66878509521484, -9.990202903747559, 90.40264892578125, 1.2635741, -0.69601154, 1.5921249
1897, 3230542673, -71.84133911132812, -13.72822380065918, 92.87149047851562, 1.508463, -0.6998333, 0.42147827
1900, 3230592674, -69.0103759765625, -17.907228469848633, 95.18930053710938, 1.3151261, -0.02551691, 0.011111259
1904, 3230659342, -65.40401458740234, -23.548770904541016, 97.23334503173828, 1.4859, -0.13350552, 0.84634304
1907, 3230709343, -61.577003479003906, -27.483142852783203, 97.89566802978516, 1.244987, -0.639126, 0.19107437
1910, 3230759344, -57.660404205322266, -31.3391170501709, 98.10575866699219, 0.99247265, -0.6634313, 0.1955452
1913, 3230809345, -52.05455780029297, -34.882179260253906, 98.16356658935547, 0.9939979, -0.68247545, 0.1424427
1916, 3230859346, -46.43928146362305, -38.35771560668945, 97.94539642333984, 0.34264624, -0.76854414, -0.8405266
1919, 3230909347, -42.28489685058594, -42.411720275878906, 97.93551635742188, -0.19683042, -0.09045445, -1.353549
1926, 3231026016, -37.468772888183594, -54.43624496459961, 99.01738739013672, -1.210893, 0.13211906, -1.913445
1929, 3231076017, -38.074466705322266, -59.958953857421875, 100.67503356933594, -0.45570022, 0.3205557, -0.661746
1932, 3231126018, -37.80012893676758, -64.62798309326172, 102.67176055908203, 0.02273395, 0.34901515, -0.14390945
1935, 3231176019, -37.54575729370117, -68.45452117919922, 105.37771606445312, -0.21951945, 0.8445023, 0.03846073
1938, 3231226020, -38.36183547973633, -71.16230010986328, 108.42041015625, -0.06329194, 0.78802955, -0.26107502
1941, 3231276021, -40.21080780029297, -73.46021270751953, 112.2622299194336, 0.22324988, 0.7171448, -0.3415146
1944, 3231326022, -43.31612014770508, -75.37818145751953, 116.4961166381836, 0.15578607, 0.25491416, -0.15158367
1948, 3231392690, -48.155025482177734, -77.45658111572266, 123.38301086425781, -0.28369606, 0.39235374, -0.23701191
1951, 3231442691, -53.95074462890625, -78.6654281616211, 130.3683319091797, -0.19471554, 0.540492, -0.45111084
1954, 3231492692, -61.65721893310547, -79.54917907714844, 138.9582061767578, 0.90585196, 0.50084716, -0.5399618
1960, 3231592694, -78.23294067382812, -80.62001037597656, 156.50205993652344, 0.7067748, 1.342834, 0.007481575
1963, 3231642695, -82.54537200927734, -80.6172866821289, 161.44700622558594, 0.04906601, 1.5398144, 0.43718052
1967, 3231709363, -82.86543273925781, -79.91986083984375, 161.8600616455078, 0.34349358, 0.7401683, 0.48812008
1970, 3231759364, -79.58160400390625, -78.83609008789062, 158.9995880126953, 0.9896841, 0.03622944, 0.34701157
1973, 3231809365, -77.19279479980469, -77.8212661743164, 157.1149444580078, 0.38610277, 0.059428856, 0.1490078
1976, 3231859366, -74.57457733154297, -76.97586822509766, 154.32078552246094, 0.6652282, 0.059714057, 0.29085922
1979, 3231909367, -72.2906494140625, -76.21879577636719, 152.0919952392578, 1.1840703, -0.24403335, 0.2407589
1982, 3231959368, -69.8855972290039, -75.57762145996094, 150.2347412109375, 0.016665349, -0.016556835, -0.124302864
1985, 3232009369, -68.42613983154297, -75.12397003173828, 148.6546630859375, 0.55958885, -0.024406608, -0.119550705
1989, 3232076037, -67.9801254272461, -74.73262786865234, 148.24415588378906, 0.18776138, -0.08986439, 0.16958141
1995, 3232176039, -67.91942596435547, -74.31741333007812, 147.99752807617188, 0.5874937, -0.025775291, 0.040099144
1998, 3232226040, -67.7664566040039, -74.29296875, 148.28561401367188, 0.036283754, 0.44203463, 0.27693462
2001, 3232276041, -67.9247055053711, -74.29875183105469, 147.6650848388672, 1.2525755, -0.26601818, 0.21706009
2004, 3232326042, -67.29541015625, -74.32472229003906, 147.56375122070312, 0.27670592, -0.28456262, 0.3172617
2008, 3232392710, -66.23751831054688, -74.29734802246094, 146.57623291015625, 0.79173005, -0.46434337, -0.27350903
2011, 3232442711, -66.68115997314453, -74.5521469116211, 147.36732482910156, 0.62529135, -0.26136276, 0.0669384
2014, 3232492712, -67.62744903564453, -74.97563934326172, 148.15785217285156, 0.65281117, -0.17722085, 0.27885532
2017, 3232542713, -68.10108947753906, -75.32523345947266, 148.74549865722656, 0.9927462, -0.08430752, 0.51206493
2020, 3232592714, -67.74728393554688, -75.63523864746094, 148.85748291015625, 0.45044073, 0.21357177, 0.3246355
2023, 3232642715, -66.37630462646484, -75.96389770507812, 147.83013916015625, 0.5484586, -0.10841284, 0.19047642
2026, 3232692716, -64.75682067871094, -76.28911590576172, 146.83265686035156, 0.24976589, -0.03408427, 0.17296886
2030, 3232759384, -62.76179504394531, -76.689697265625, 145.64590454101562, 0.647819, -0.23376103, 0.20043945
2033, 3232809385, -60.23249435424805, -76.91850280761719, 144.05984497070312, 0.0958504, -0.021925056, 0.34622955
2036, 3232859386, -57.393089294433594, -77.00546264648438, 141.26010131835938, 1.157548, -0.33660057, 0.4562149
2039, 3232909387, -53.76559829711914, -76.9631576538086, 138.65415954589844, 0.06976197, -0.34557965, -0.06060791
2042, 3232959388, -50.61304473876953, -76.80638122558594, 136.46282958984375, -0.5955324, 0.11266461, -0.45222187
2045, 3233009389, -49.902156829833984, -76.7341537475586, 135.64111328125, -0.45935667, 0.010243375, -0.30531693
2048, 3233059390, -50.313785552978516, -76.60526275634766, 135.88314819335938, -0.28454852, 0.11115165, 0.034690857
2052, 3233126058, -50.867977142333984, -76.11385345458984, 136.5526885986328, -0.17200932, 0.45429757, -0.32691002
2058, 3233226060, -54.4021110534668, -74.9298324584961, 139.2827606201172, 0.40653005, 0.13372065, 0.2114687
2061, 3233276061, -55.52901840209961, -74.07317352294922, 140.00390625, 1.0018678, 0.06416051, 0.34634304
2064, 3233326062, -55.85494613647461, -73.45274353027344, 140.1750030517578, 0.890597, 0.102488175, 0.31769848
2067, 3233376063, -55.466548919677734, -72.96556854248047, 139.95562744140625, 0.57387376, 0.09163517, 0.12626743
2070, 3233426064, -55.44632339477539, -72.62349700927734, 139.85427856445312, 0.5076189, -0.0861334, 0.0018358231
2074, 3233492732, -56.11281967163086, -72.33357238769531, 140.10035705566406, 0.33469188, -0.14966707, 0.24077702
2077, 3233542733, -56.39834976196289, -72.06114959716797, 140.08326721191406, 0.7263277, -0.26455775, 0.3158579
2080, 3233592734, -56.488197326660156, -71.86894226074219, 140.15069580078125, 0.47904325, -0.27207518, 0.022263527
2083, 3233642735, -56.71589660644531, -71.90081787109375, 140.25924682617188, 0.35534403, -0.038082585, 0.228652
2086, 3233692736, -57.2014274597168, -71.96609497070312, 140.50057983398438, 0.35482144, -0.17825359, 0.042209625
2093, 3233809405, -58.34761428833008, -71.92195892333984, 141.60084533691406, 0.20654653, -0.009207505, 0.11606312
2096, 3233859406, -58.90492630004883, -71.92578125, 141.89999389648438, 0.47317627, 0.024721874, 0.27775192
2099, 3233909407, -59.23627853393555, -71.89006805419922, 142.1346893310547, 0.38760835, 0.014670385, 0.16626549
2102, 3233959408, -59.4669189453125, -71.86053466796875, 142.2465057373047, 0.4269625, 0.17200674, 0.094670296
2105, 3234009409, -59.65317916870117, -71.86538696289062, 142.28684997558594, 0.20826446, 0.054009, 0.09494114
2108, 3234059410, -59.718502044677734, -71.78068542480469, 142.28802490234375, 0.20825239, 0.04203664, 0.105529785
2111, 3234109411, -59.75898361206055, -71.59496307373047, 142.27320861816406, 0.17544203, 0.011745606, 0.011131287
2115, 3234176079, -60.18752670288086, -71.35502624511719, 142.45338439941406, 0.5170114, -0.18726933, 0.15761852
2118, 3234226080, -60.78679275512695, -71.11723327636719, 143.08168029785156, 0.33603942, -0.17023417, 0.103001595
2121, 3234276081, -61.44174575805664, -70.83729553222656, 143.5421905517578, 0.6715038, -0.0694666, 0.18885803
2127, 3234376083, -62.756011962890625, -70.71488189697266, 144.61866760253906, 0.46910095, -0.006415269, 0.13508129
2130, 3234426084, -63.30046463012695, -70.72907257080078, 144.95758056640625, 0.58309454, -0.05730727, 0.28950787
2133, 3234476085, -63.51808166503906, -70.69163513183594, 145.11154174804688, 0.47461322, -0.092081636, 0.19649124
2137, 3234542753, -63.68375015258789, -70.61370086669922, 145.2552947998047, 0.36337262, -0.19035257, -0.044919968
2140, 3234592754, -64.08756256103516, -70.62913513183594, 145.48785400390625, 0.47950146, -0.1487899, 0.112835884
2143, 3234642755, -64.64793395996094, -70.68264770507812, 146.03326416015625, 0.3303477, -0.12353069, 0.23590851
2146, 3234692756, -65.13902282714844, -70.70010375976562, 146.47410583496094, 0.3867724, -0.02208062, 0.3047285
2149, 3234742757, -65.48946380615234, -70.60760498046875, 146.8441162109375, 0.62471825, -0.099815525, 0.17155075
2152, 3234792758, -65.33643341064453, -70.59814453125, 146.9006805419922, 0.39718074, 0.07482923, 0.13000679
2156, 3234859426, -65.36444091796875, -70.71843719482422, 146.9694366455078, 0.25441632, -0.046793666, 0.13279152
2162, 3234959428, -65.4261245727539, -70.66122436523438, 147.1576690673828, 0.15653975, -0.019352647, 0.24224281
2165, 3235009429, -65.70545959472656, -70.5817642211914, 147.39476013183594, 0.33794197, -0.054621648, 0.13358688
2168, 3235059430, -65.87040710449219, -70.50476837158203, 147.518310546875, 0.43301722, 0.0630235, 0.124809265
2171, 3235109431, -66.0279541015625, -70.48587799072266, 147.6973419189453, 0.2366497, 0.079743944, 0.14977646
2174, 3235159432, -66.2674789428711, -70.46427154541016, 147.80661010742188, 0.19136979, 0.05056623, 0.19572926
2178, 3235226100, -66.35204315185547, -70.16996002197266, 147.9418182373047, 0.28129083, -0.006129284, 0.10696888
2181, 3235276101, -66.33727264404297, -70.00277709960938, 147.84616088867188, 0.3721379, -0.0822388, 0.09562206
2184, 3235326102, -66.4652328491211, -69.9026870727539, 148.02908325195312, 0.10273058, -0.16358075, 0.12508488
2187, 3235376103, -66.73751831054688, -69.77110290527344, 148.25408935546875, 0.25207725, -0.13896057, 0.04655361
2190, 3235426104, -67.17744445800781, -69.6308364868164, 148.748291015625, 0.21156709, -0.13043456, 0.12283516
2193, 3235476105, -67.799560546875, -69.4933853149414, 149.3175048828125, 0.25242233, -0.13633497, 0.08473015
2196, 3235526106, -68.23363494873047, -69.34168243408203, 149.77027893066406, 0.36753398, 0.022450646, 0.21855545
2200, 3235592774, -68.98217010498047, -69.11079406738281, 150.59259033203125, 0.19832148, -0.0021956796, 0.17756271
2203, 3235642775, -69.69984436035156, -68.90222930908203, 151.06651306152344, 0.563235, 0.012743703, 0.24372673
2206, 3235692776, -69.96080017089844, -68.6403579711914, 151.37567138671875, 0.60741365, 0.0109132435, 0.25147057
2209, 3235742777, -70.0557861328125, -68.4366455078125, 151.4467315673828, 0.636798, 0.009172189, 0.25621986
2212, 3235792778, -69.95182037353516, -68.3117446899414, 151.32652282714844, 0.496454, -0.011142009, 0.22140026
2215, 3235842779, -69.79950714111328, -68.2295913696289, 151.1681365966797, 0.4239947, 0.005623698, 0.11770439
2219, 3235909447, -69.67838287353516, -68.13719177246094, 150.89633178710938, 0.3420316, -0.018486869, 0.22869682
2225, 3236009449, -69.5022964477539, -67.9323501586914, 150.68170166015625, 0.2599058, -0.07799205, 0.10292721
2228, 3236059450, -69.6773681640625, -67.88275146484375, 150.68399047851562, 0.47295117, -0.118438736, 0.098145485
2231, 3236109451, -69.73590087890625, -67.87254333496094, 150.77481079101562, 0.20336819, -0.014333998, 0.19791508
2234, 3236159452, -69.97493743896484, -67.84703063964844, 150.94638061523438, 0.39815882, -0.03338859, 0.14391804
2237, 3236209453, -70.14574432373047, -67.75106048583984, 151.13949584960938, 0.302565, 0.0055171936, 0.12589455
2241, 3236276121, -70.22055053710938, -67.63273620605469, 151.0357208251953, 0.4523739, 0.11961329, 0.14046097
2244, 3236326122, -69.98641967773438, -67.57357788085938, 150.892822265625, 0.06691352, 0.06361827, 0.15075588
2247, 3236376123, -69.76215362548828, -67.41732788085938, 150.70040893554688, 0.32741943, -0.08335592, 0.041543007
2250, 3236426124, -69.60771942138672, -67.26634216308594, 150.61415100097656, 0.2052287, -0.15683088, 0.17420578
2253, 3236476125, -69.7098159790039, -67.1294937133789, 150.6368865966797, 0.41947123, -0.11212841, 0.23304844
2259, 3236576127, -69.83360290527344, -67.03504943847656, 150.7499542236328, 0.4316444, -0.058650024, 0.16229153
2263, 3236642795, -70.07218170166016, -67.08116149902344, 150.93167114257812, 0.31995544, -0.06828377, 0.18250084
2266, 3236692796, -70.32819366455078, -67.03519439697266, 151.0671844482422, 0.2360697, -0.0059743896, 0.15676403
2269, 3236742797, -70.546142578125, -66.97158813476562, 151.18362426757812, 0.41124687, 0.004818492, 0.07364082
2272, 3236792798, -70.70965576171875, -66.96150207519531, 151.338623046875, 0.23609607, 0.09290908, 0.06188965
2275, 3236842799, -70.95773315429688, -67.00585174560547, 151.4745330810547, 0.21841283, 0.04801025, 0.11574459
2278, 3236892800, -71.0345687866211, -66.92147827148438, 151.54527282714844, 0.29048637, 0.041581903, 0.1685543
2282, 3236959468, -71.19290161132812, -66.71786499023438, 151.75100708007812, 0.37208134, 0.028416207, 0.19452667
2285, 3237009469, -71.21636199951172, -66.62627410888672, 151.61083984375, 0.6869387, 0.046865862, 0.2845726
2288, 3237059470, -71.09907531738281, -66.60587310791016, 151.59051513671875, 0.42423564, -0.018748602, 0.07799244
2294, 3237159472, -71.01702880859375, -66.6410903930664, 151.398681640625, -0.13008991, -0.10060083, -0.033852577
2297, 3237209473, -71.48573303222656, -66.43975830078125, 151.4132537841797, -0.8133987, -0.3272042, -0.49481487
2300, 3237259474, -72.7741470336914, -65.97528076171875, 151.75784301757812, -2.1300263, -0.34352678, -1.1998882
2304, 3237326142, -76.1067886352539, -64.3161849975586, 154.9899139404297, -2.211231, -0.23278752, -1.6793289
2307, 3237376143, -79.74690246582031, -62.326168060302734, 158.5425262451172, -1.3154339, -0.0355475, -1.3673286
2310, 3237426144, -83.1021728515625, -59.74374771118164, 161.75726318359375, -0.5759113, 0.14122073, -1.0582294
2313, 3237476145, -85.6192398071289, -56.666656494140625, 164.40927124023438, 0.13428211, 0.2597423, -0.5313816
2316, 3237526146, -87.58992004394531, -53.32280349731445, 166.5674285888672, 0.3014716, 0.11481341, -0.95404243
2322, 3237626148, -90.04067993164062, -46.45360565185547, 169.91542053222656, 1.3220012, -0.19907735, 0.11817455
2326, 3237692816, -91.07275390625, -42.15513229370117, 171.48231506347656, 1.2759949, -0.4261793, 0.3907652
2332, 3237792818, -91.10433959960938, -36.336673736572266, 173.2995147705078, 0.64112324, -0.3595656, 0.07488155
2335, 3237842819, -91.0424575805664, -33.60567092895508, 174.19175720214844, 0.8616105, -0.068430476, 0.21987057
2338, 3237892820, -90.89105987548828, -30.96962547302246, 175.0850372314453, 0.24489744, -0.11808634, 0.42159748
2341, 3237942821, -90.9183120727539, -28.4371395111084, 175.79261779785156, 0.65962106, 0.036382742, 0.040319443
2345, 3238009489, -91.53470611572266, -25.149240493774414, 176.690673828125, 0.4813132, 0.11742992, -0.9950075
2348, 3238059490, -92.84134674072266, -22.302627563476562, 177.6370086669922, 0.5021797, 0.08250058, -1.0051937
2351, 3238109491, -94.68738555908203, -19.58236312866211, 178.3904571533203, 0.824916, 0.31058013, 0.61277294
2354, 3238159492, -95.2919692993164, -16.92411994934082, 178.85494995117188, 1.1950964, 0.27383545, 0.9724207
2357, 3238209493, -95.26497650146484, -14.34981632232666, 179.11349487304688, 0.6778547, 0.4161742, 0.9306631
2360, 3238259494, -95.62516784667969, -12.05720329284668, 178.99229431152344, 0.8358554, 0.11612997, 0.67997456
2363, 3238309495, -95.80657958984375, -9.99096965789795, 178.75680541992188, 0.55141866, 0.1580191, 0.6270313
2367, 3238376163, -95.94743347167969, -7.636083126068115, 178.71270751953125, 0.468284, -0.07760791, 0.7265644
2373, 3238476165, -96.37759399414062, -4.850039958953857, 178.9712677001953, 0.17816052, -0.036315676, 0.7222481
2376, 3238526166, -96.50147247314453, -3.712280035018921, 179.0018310546875, 0.40219167, -0.09313969, 0.530488
2379, 3238576167, -96.14238739013672, -2.6951491832733154, 178.9588623046875, 0.34795463, 0.07372002, 0.19929218
2382, 3238626168, -95.86222076416016, -1.7051373720169067, 179.01622009277344, 0.39354557, 0.1332755, -0.43904495
2385, 3238676169, -95.89739990234375, -0.6599955558776855, 178.97787475585938, 0.45308793, 0.30361614, -0.26676464
2389, 3238742837, -96.34140014648438, 0.8687264919281006, 178.8351593017578, 0.17253828, 0.31542382, 0.607234
2392, 3238792838, -96.86019897460938, 1.7116986513137817, 178.50198364257812, 0.43904215, 0.070486285, 1.2128086
2398, 3238892840, -96.19137573242188, 2.71584415435791, 177.83868408203125, 0.33527696, -0.08867428, 0.6439438
2401, 3238942841, -96.02871704101562, 2.816483974456787, 177.5919189453125, 0.37316495, -0.20288217, 0.21933937
2404, 3238992842, -95.74982452392578, 2.8245091438293457, 177.52745056152344, 0.24086106, -0.096716814, -0.13400173
2407, 3239042843, -95.74591064453125, 2.790257692337036, 177.5474090576172, 0.2678102, -0.014138516, -0.09053326
2411, 3239109511, -95.46698760986328, 2.8257405757904053, 177.59181213378906, 0.3070574, 0.06617025, -0.16837978
2414, 3239159512, -95.37673950195312, 2.892383337020874, 177.5882568359375, 0.41031054, 0.041191835, -0.033136368
2417, 3239209513, -95.08699035644531, 2.9220705032348633, 177.60423278808594, 0.36093003, 0.13570604, -0.024312973
2420, 3239259514, -94.80516052246094, 2.9722707271575928, 177.57168579101562, 0.34321514, -0.06937834, 0.069470406
2423, 3239309515, -94.64459228515625, 2.9979350566864014, 177.51541137695312, 0.2876118, -0.043243133, 0.11582756
2426, 3239359516, -94.53408813476562, 2.933922290802002, 177.50390625, 0.26488927, 0.03375091, -0.01408577
2433, 3239476185, -94.27003479003906, 2.7180521488189697, 177.486572265625, 0.19844574, -0.028546948, -0.25712967
2436, 3239526186, -94.30108642578125, 2.673877477645874, 177.3754425048828, 0.2569059, -0.06036386, -0.10052109
2439, 3239576187, -94.1328353881836, 2.639845848083496, 177.4163818359375, 0.3121624, -0.04917256, -0.2600069
2442, 3239626188, -94.22450256347656, 2.635590076446533, 177.46902465820312, 0.27647683, -0.07900851, -0.050447464
2445, 3239676189, -94.20376586914062, 2.67368483543396, 177.4855194091797, 0.17003231, 0.100445606, -0.10451126
2448, 3239726190, -94.24162292480469, 2.698570489883423, 177.54400634765625, 0.2127091, 0.03861787, -0.039881706
2452, 3239792858, -94.29833221435547, 2.7608094215393066, 177.4936065673828, 0.18289292, -0.03453456, 0.030715942
2455, 3239842859, -94.21485900878906, 2.8137292861938477, 177.45762634277344, 0.37819907, -0.005282215, -0.1629343
2458, 3239892860, -94.26774597167969, 2.866943359375, 177.4449005126953, 0.18319306, 0.15575993, -0.080200195
2461, 3239942861, -94.22100067138672, 2.8934719562530518, 177.41244506835938, 0.23272845, 0.10055234, 0.022190094
2467, 3240042863, -94.13679504394531, 2.9348437786102295, 177.34437561035156, 0.2401438, 0.03024387, -0.14660263
2471, 3240109531, -94.19580841064453, 2.996927499771118, 177.32107543945312, 0.27469966, -0.07762491, -0.014789581
2474, 3240159532, -94.07939910888672, 3.0576376914978027, 177.36825561523438, 0.38870308, -0.025418883, -0.19149971
2477, 3240209533, -94.13194274902344, 3.1455554962158203, 177.38670349121094, 0.3113, 0.06102501, 0.07690525
2480, 3240259534, -94.03997039794922, 3.2182979583740234, 177.47235107421875, 0.07787394, 0.17946613, -0.0776844
2483, 3240309535, -94.21458435058594, 3.219327926635742, 177.43467712402344, 0.09137095, 0.09050936, 0.10312939
2486, 3240359536, -94.09593963623047, 3.21964693069458, 177.43051147460938, 0.30191082, 0.08184078, -0.019111633
2489, 3240409537, -93.90794372558594, 3.1885738372802734, 177.50900268554688, 0.32827815, 0.3261743, -0.21511745
2496, 3240526206, -94.22855377197266, 2.7920122146606445, 176.93626403808594, 0.18845183, 2.247415, 0.11702728
2499, 3240576207, -94.4577865600586, 2.3824048042297363, 175.18321228027344, 0.19325358, 2.716901, 1.1940546
2505, 3240676209, -93.8126449584961, 1.723152756690979, 169.80148315429688, 0.7531355, 2.1281986, 0.45547485
2508, 3240726210, -94.17806243896484, 1.2783217430114746, 165.9856414794922, 1.2162414, 1.2000253, 0.04296112
2511, 3240776211, -93.72360229492188, 0.7753492593765259, 161.93994140625, 1.2174426, 1.2891866, -0.31732273
2515, 3240842879, -93.74871826171875, 0.013261666521430016, 156.18284606933594, 1.366964, 0.9476014, -0.40297222
2518, 3240892880, -92.8249282836914, -0.25626954436302185, 151.376220703125, 1.4066265, 0.56807476, -0.19592667
2521, 3240942881, -90.95097351074219, -0.3146052062511444, 146.36647033691406, 1.4101014, 0.2552852, -0.46943474
2524, 3240992882, -89.26262664794922, -0.1821102350950241, 141.0431671142578, 1.055274, -0.22300544, -0.7865629
2527, 3241042883, -88.39199829101562, 0.04460284858942032, 135.29898071289062, 1.1120505, -0.7876263, -0.25345516
2530, 3241092884, -87.46454620361328, 0.5146292448043823, 129.42193603515625, 0.99799, -1.1466421, 0.042167664
2534, 3241159552, -86.10601043701172, 1.1954723596572876, 122.36679077148438, 0.55701923, -0.934861, -0.11481285
2537, 3241209553, -85.10066986083984, 1.5065102577209473, 117.7066421508789, 0.65846527, -0.8086286, -0.1064806
2543, 3241309555, -82.87399291992188, 2.37202525138855, 109.31808471679688, -0.33763745, -0.6169561, -1.3953018
2546, 3241359556, -81.82290649414062, 2.896087408065796, 105.18753814697266, 0.034568515, -0.15549752, 0.48735905
2549, 3241409557, -81.10136413574219, 3.7203211784362793, 100.76083374023438, 0.71494645, -1.2549305, 0.7483959
2552, 3241459558, -80.07684326171875, 4.54963493347168, 96.73491668701172, -0.17804271, -0.7718419, -0.4110918
2556, 3241526226, -80.6065444946289, 5.05811882019043, 91.72299194335938, -0.7150756, -0.4993838, 0.4122944
2559, 3241576227, -80.62617492675781, 5.301429748535156, 88.61835479736328, -0.6644745, -0.31179097, 0.34160042
2562, 3241626228, -80.94754791259766, 5.443981647491455, 85.91606903076172, -0.61965907, -0.15858558, 0.39119434
2565, 3241676229, -81.53797912597656, 5.480775833129883, 83.46981048583984, -1.0630767, 0.21239229, 0.14821053
2574, 3241826232, -81.5018310546875, 5.758729934692383, 78.6583023071289, -1.6714844, 0.22884105, 0.25172997
2578, 3241892900, -81.28874969482422, 5.545825958251953, 78.04986572265625, -1.234743, 0.52564746, 0.19355011
2581, 3241942901, -80.9036636352539, 5.301110744476318, 78.11051177978516, -1.0596074, 0.6060509, -0.32692242
2584, 3241992902, -81.12876892089844, 4.980034351348877, 78.36415100097656, -0.29894546, 0.3832132, 0.08952618
2590, 3242092904, -81.10899353027344, 4.584595680236816, 79.19467163085938, 0.16825743, 0.54722273, -0.037049294
2596, 3242192906, -80.8154067993164, 4.744417190551758, 79.71147155761719, 0.22105744, 0.66011196, -0.007516861
2600, 3242259574, -80.65035247802734, 4.816919326782227, 79.98435974121094, 0.26431927, 0.5642933, -0.13106537
2603, 3242309575, -80.67826080322266, 4.828335285186768, 80.1003646850586, 0.15992956, 0.54012686, 0.051983833
2606, 3242359576, -80.3150634765625, 4.844965934753418, 80.34268188476562, 0.23501627, 0.5239202, -0.3475914
2612, 3242459578, -80.33470153808594, 4.9951090812683105, 80.59847259521484, 0.33106515, 0.6335803, -0.147398
2619, 3242576247, -80.46036529541016, 5.179624557495117, 80.66348266601562, 0.22875032, 0.4689798, 0.040784836
2622, 3242626248, -80.4220199584961, 5.239665508270264, 80.7713623046875, 0.21207893, 0.6910196, 0.0040197372
2625, 3242676249, -80.49236297607422, 5.269658088684082, 80.79229736328125, 0.3132856, 0.464723, 0.36163998
2628, 3242726250, -80.2537841796875, 5.313303470611572, 80.81250762939453, 0.21524276, 0.5058087, -0.17980862
2631, 3242776251, -80.13384246826172, 5.3497138023376465, 80.79833984375, 0.056867953, 0.41428328, -0.22855663
2634, 3242826252, -80.37862396240234, 5.391458988189697, 80.81207275390625, 0.07602681, 0.47412038, -0.15733624
2637, 3242876253, -80.45904541015625, 5.416941165924072, 80.88577270507812, 0.073136345, 0.5347351, -0.08202267
2644, 3242992922, -80.37055969238281, 5.671229839324951, 81.05648040771484, 0.037729435, 0.42462164, -0.48402882
2647, 3243042923, -80.51653289794922, 5.8794379234313965, 81.2156753540039, -0.10508305, 0.42171797, -1.0042973
2650, 3243092924, -80.3440933227539, 6.391718864440918, 81.57154083251953, -0.75649035, 0.36008117, -2.7496433
2663, 3243309595, -83.07830810546875, 18.986757278442383, 87.13080596923828, -0.5685096, -0.61591387, -1.4670811
2666, 3243359596, -83.75283813476562, 23.63641929626465, 89.09684753417969, -0.06649935, -1.6159832, 0.66994953
2669, 3243409597, -85.20567321777344, 28.371206283569336, 91.30625915527344, 0.45938304, -2.2704942, -0.6301575
2675, 3243509599, -88.79879760742188, 38.33646011352539, 96.26342010498047, 0.71673083, -0.946547, 2.0505486
2678, 3243559600, -90.52621459960938, 43.2025260925293, 98.93851470947266, 1.6712761, -0.05613148, 1.831296
2682, 3243626268, -93.1019515991211, 49.1803092956543, 102.68292999267578, 1.2180902, 1.5027083, 1.8860369
2685, 3243676269, -95.19476318359375, 53.20954513549805, 105.06422424316406, 1.2679639, 0.7746104, 1.888771
2688, 3243726270, -98.05123138427734, 56.94607925415039, 107.69529724121094, 1.1881872, 0.6740976, 1.053441
2691, 3243776271, -100.3179931640625, 60.60215759277344, 110.76707458496094, 1.5255182, -0.6473331, 1.6150208
2694, 3243826272, -101.14804077148438, 64.52208709716797, 115.419677734375, 1.5919335, -0.21874163, 0.87114525
2700, 3243926274, -95.89292907714844, 72.42713928222656, 131.359619140625, 0.22228415, 2.4980688, 0.59554005
2704, 3243992942, -85.21674346923828, 76.44661712646484, 145.2807159423828, -0.46793485, 2.7522004, 0.7740793
2707, 3244042943, -74.52289581298828, 78.36026763916016, 156.85386657714844, -1.4081117, 3.3201945, 0.4526167
2710, 3244092944, -65.17887115478516, 79.54153442382812, 165.49778747558594, -2.1870458, 2.9511, 0.2252016
2713, 3244142945, -59.67356872558594, 79.52054595947266, 169.88975524902344, 0.05408125, 1.1116241, 0.10877323
2716, 3244192946, -61.54722595214844, 79.56853485107422, 169.24032592773438, -0.47054338, 0.30684698, -0.3009138
2719, 3244242947, -67.73338317871094, 79.45243835449219, 164.89932250976562, -0.21694872, 0.70779085, -0.0137376785
2723, 3244309615, -72.93513488769531, 79.4021987915039, 159.12254333496094, 0.45427802, -0.062069323, -0.21169949
2726, 3244359616, -76.56079864501953, 79.43243408203125, 154.992431640625, 0.6119409, -0.3988032, -0.20803356
2729, 3244409617, -79.91441345214844, 79.48970031738281, 151.42161560058594, 0.37652043, -0.4705235, -0.261508
2732, 3244459618, -81.95169830322266, 79.62516784667969, 149.14608764648438, 0.14132266, -0.27382562, -0.25045395
2735, 3244509619, -82.85381317138672, 79.73160552978516, 147.80462646484375, 0.14149365, -0.3742274, -0.19189835
2738, 3244559620, -82.63589477539062, 79.84642791748047, 147.81112670898438, -0.02838447, -0.27139893, -0.16034603
2741, 3244609621, -81.57215881347656, 79.98472595214844, 148.6600799560547, -0.10453416, -0.14081037, -0.23548222
2745, 3244676289, -80.63583374023438, 80.13594055175781, 149.65017700195312, -0.13587101, -0.03237775, -0.060822487
2748, 3244726290, -79.64505767822266, 80.20020294189453, 150.65673828125, 0.05977558, 0.18105522, -0.14018917
2754, 3244826292, -77.15444946289062, 80.1209487915039, 153.12095642089844, 0.25874296, 0.115902975, -0.03556633
2757, 3244876293, -76.67321014404297, 80.04618072509766, 153.7450408935547, 0.16665204, 0.29217604, -0.10530281
2763, 3244976295, -76.34773254394531, 79.9478759765625, 153.97743225097656, 0.23315983, 0.18998188, -0.28383636
2770, 3245092964, -78.42755889892578, 79.81885528564453, 151.81405639648438, 0.33546245, -0.0111083705, -0.16365051
2773, 3245142965, -78.96375274658203, 79.75328063964844, 151.2884063720703, 0.3715952, -0.10920608, -0.22519493
2776, 3245192966, -79.94646453857422, 79.7196044921875, 150.23794555664062, 0.38404745, -0.04479468, -0.18571758
2779, 3245242967, -80.2226333618164, 79.71586608886719, 149.8164520263672, 0.30509424, -0.05951077, -0.34877777
2782, 3245292968, -80.2237319946289, 79.77754211425781, 149.71925354003906, 0.28832456, -0.20282146, -0.30618286
2785, 3245342969, -80.63581085205078, 79.9136734008789, 149.31134033203125, 0.21852028, -0.079038315, -0.2408514
2789, 3245409637, -81.40318298339844, 80.16667175292969, 148.3897705078125, 0.18454124, -0.009144697, -0.06638241
2792, 3245459638, -81.73258209228516, 80.31771087646484, 147.95361328125, 0.17542398, 0.049992472, -0.105957985
2795, 3245509639, -81.75672149658203, 80.41828155517578, 147.92904663085938, 0.067289636, 0.06793062, 0.009279251
2798, 3245559640, -81.55050659179688, 80.46168518066406, 148.06541442871094, 0.07604855, 0.11463376, -0.15437222
2804, 3245659642, -81.52481079101562, 80.4600601196289, 147.89039611816406, 0.14609438, 0.067865685, -0.2557459
2808, 3245726310, -82.20855712890625, 80.39733123779297, 147.3070068359375, 0.16481286, 0.041958857, -0.05843067
2811, 3245776311, -82.25904083251953, 80.36979675292969, 147.12384033203125, 0.31038785, -0.077449806, -0.21205902
2814, 3245826312, -82.38896942138672, 80.36817932128906, 146.96517944335938, 0.21785824, -0.027580269, -0.19024658
2820, 3245926314, -82.6324234008789, 80.45243835449219, 146.58474731445312, 0.17364363, -0.044034846, -0.09785366
2823, 3245976315, -82.40580749511719, 80.4902114868164, 146.6435089111328, 0.16496965, -0.010458954, -0.26846695
2826, 3246026316, -82.23882293701172, 80.55754089355469, 146.672119140625, 0.16488573, -0.0073441886, -0.24811459
2830, 3246092984, -82.72581481933594, 80.62994384765625, 146.09278869628906, 0.1900172, 0.018773524, -0.068011284
2833, 3246142985, -82.73826599121094, 80.69696807861328, 145.97119140625, 0.16205996, 0.029265221, -0.14220619
2836, 3246192986, -82.67982482910156, 80.74004364013672, 145.91162109375, 0.19237018, 0.024303794, -0.23996353
2842, 3246292988, -83.4452133178711, 80.81999206542969, 144.93162536621094, 0.1403107, -0.030788463, -0.083052635
2845, 3246342989, -84.01012420654297, 80.8445816040039, 144.3157958984375, 0.05819551, 0.015914345, -0.103676796
2848, 3246392990, -84.13919067382812, 80.87811279296875, 144.0576171875, 0.18216938, -0.05795948, -0.20696163
2852, 3246459658, -84.52429962158203, 80.8938980102539, 143.68649291992188, 0.04692448, -0.0262155, -0.10387516
2855, 3246509659, -84.71634674072266, 80.89688110351562, 143.4299774169922, 0.18731168, -0.03649877, -0.17357922
2858, 3246559660, -84.72760772705078, 80.88652038574219, 143.4070281982422, 0.16071185, -0.017755087, -0.15613937
2861, 3246609661, -84.75399780273438, 80.8798599243164, 143.39578247070312, 0.14239624, -0.012639099, -0.10111046
2864, 3246659662, -84.76239776611328, 80.84719848632812, 143.38722229003906, 0.11389432, 0.004886887, -0.1774435
2871, 3246776331, -84.85934448242188, 80.78680419921875, 143.1974639892578, 0.06497656, 0.07512751, -0.13874626
2877, 3246876333, -85.41671752929688, 80.70132446289062, 142.449462890625, 0.20733029, 0.0093193725, -0.18369961
2883, 3246976335, -86.15281677246094, 80.62046813964844, 141.6528778076172, 0.096199974, -0.007862738, -0.1831007
2889, 3247076337, -88.41918182373047, 80.39636993408203, 138.30197143554688, -0.40186727, 1.4827682, -0.5019207
2893, 3247143005, -96.26388549804688, 78.75927734375, 130.1770477294922, -0.7522151, 2.6514115, 0.7244024
2896, 3247193006, -104.8626937866211, 76.36795043945312, 121.59890747070312, 0.31102636, 3.3580098, 0.6604948
2899, 3247243007, -114.90100860595703, 72.83716583251953, 113.01181030273438, -0.5429522, 3.279192, 1.826478
2905, 3247343009, -123.95350646972656, 63.06559753417969, 102.40901184082031, 0.26443836, 0.9908629, 1.9616137
2908, 3247393010, -124.04118347167969, 57.50174331665039, 99.68072509765625, 0.46468797, -0.02908479, 2.2043571
2912, 3247459678, -121.9287109375, 49.86845779418945, 98.13533782958984, 0.34787807, -0.29164666, 2.0262794
2915, 3247509679, -120.09873962402344, 43.82857131958008, 97.47242736816406, -2.0862141E-4, -0.20515732, 2.2991114
2918, 3247559680, -118.33552551269531, 37.371238708496094, 96.79086303710938, 0.23825511, -1.0963558, 2.0960922
2921, 3247609681, -116.37357330322266, 30.813337326049805, 96.13206481933594, 0.37265202, -1.9698583, 0.9483967
2924, 3247659682, -114.10231018066406, 24.360034942626953, 95.36935424804688, 0.28376094, -2.0359771, 0.342453
2927, 3247709683, -111.04342651367188, 18.42901611328125, 94.6843490600586, 0.46865985, -2.1553032, -0.7918825
2930, 3247759684, -108.40914154052734, 12.942683219909668, 93.99668884277344, 0.57819885, -1.6816115, -1.2161303
2934, 3247826352, -104.84609985351562, 6.249393463134766, 93.05781555175781, 0.47042748, -1.1350085, -0.8875694
2937, 3247876353, -101.8912124633789, 1.8031586408615112, 92.22491455078125, 0.5422383, -0.7583791, -0.74077606
2946, 3248026356, -91.86305236816406, -9.302606582641602, 87.79344940185547, 0.18904838, -0.263889, -2.3519363
2949, 3248076357, -88.93214416503906, -11.956725120544434, 86.0660629272461, -0.14226018, 0.25448695, -3.7471218
2952, 3248126358, -86.61311340332031, -13.652420043945312, 85.06743621826172, -0.8773943, 0.8703051, -4.1410503
2959, 3248243027, -84.78067016601562, -14.143908500671387, 84.28526306152344, -0.14146201, 0.9884237, -2.0859103
2962, 3248293028, -84.99847412109375, -13.47599983215332, 83.95311737060547, 0.021940032, 0.6240571, -0.87569714
2965, 3248343029, -85.08847045898438, -12.683900833129883, 83.80723571777344, 0.05027164, 0.15613967, 0.3594408
2968, 3248393030, -85.1328353881836, -12.15828800201416, 83.80895233154297, 0.11332196, 0.5896958, 0.5821314
2971, 3248443031, -84.89369201660156, -11.732429504394531, 83.6175308227539, 0.4976992, 0.17295611, 0.4812374
2974, 3248493032, -84.6601333618164, -11.419629096984863, 83.40091705322266, 0.36340815, 0.15241036, 0.52524185
2978, 3248559700, -84.0361557006836, -11.053695678710938, 83.13935089111328, 0.2570933, 0.18592009, -0.032502174
2981, 3248609701, -84.47508239746094, -10.972406387329102, 83.05888366699219, -0.23569664, 0.4388478, -0.19835472
2984, 3248659702, -84.11964416503906, -10.816314697265625, 83.18492126464844, 0.0783404, 0.3253298, 0.08109474
2987, 3248709703, -84.46202850341797, -10.717192649841309, 83.31790161132812, 0.17933495, 0.13574836, 0.33380985
2993, 3248809705, -84.42092895507812, -10.493356704711914, 83.49883270263672, 0.18772428, 0.2274774, 0.3788929
2997, 3248876373, -83.95870971679688, -10.198806762695312, 83.72612762451172, 0.09926367, 0.3127324, -0.27104855
3000, 3248926374, -83.76319885253906, -9.916901588439941, 83.83401489257812, 0.2935903, 0.4539966, -0.11365509
3003, 3248976375, -83.74950408935547, -9.657538414001465, 83.7550277709961, 0.22502548, 0.4810133, -0.09370804
3006, 3249026376, -83.91866302490234, -9.481369972229004, 83.61305236816406, 0.13471954, 0.118349664, 0.32680988
3009, 3249076377, -83.56459045410156, -9.261054039001465, 83.6473617553711, 0.02007817, 0.35912699, -0.13254833
3012, 3249126378, -83.2366714477539, -9.069741249084473, 83.61539459228516, 0.25504372, 0.20354341, 0.2763939
3015, 3249176379, -82.0489730834961, -8.859243392944336, 83.85198974609375, 0.43678388, 0.112851694, 0.1467123
3019, 3249243047, -78.48905944824219, -8.742237091064453, 85.15644836425781, 0.15817945, -0.14125371, -0.08666611
3022, 3249293048, -74.97391510009766, -9.377285957336426, 86.83170318603516, 0.3429366, -0.103544615, 0.7312403
3031, 3249443051, -65.28758239746094, -16.462480545043945, 90.5452880859375, 0.07528855, -0.8327855, -0.30086327
3034, 3249493052, -63.305171966552734, -20.36994171142578, 91.8943099975586, 0.099772386, -0.86840194, 0.002325058
3037, 3249543053, -61.34024429321289, -24.98684310913086, 93.59898376464844, -0.014111491, -0.7837626, -0.34491253
3044, 3249659722, -61.268062591552734, -37.356380462646484, 98.84429931640625, -0.73163635, 0.208167, -0.23900795
3047, 3249709723, -63.49140930175781, -43.109947204589844, 101.80461883544922, 0.53342885, -0.89790934, 0.59155464
3050, 3249759724, -64.69579315185547, -48.937984466552734, 105.83719635009766, 0.2625647, -0.16493703, 0.076660156
3056, 3249859726, -70.98837280273438, -59.90409851074219, 116.5548324584961, 0.6331159, 0.25428435, 0.07244396
3060, 3249926394, -77.76911163330078, -65.9046630859375, 126.08673095703125, 0.24410833, 0.24595936, -0.7842283
3063, 3249976395, -86.44889831542969, -69.6334457397461, 136.9029541015625, 0.59931225, 0.310858, -0.026171684
3066, 3250026396, -96.15650939941406, -72.3613510131836, 148.91761779785156, 0.2667086, 0.74413836, -0.34813118
3072, 3250126398, -117.00533294677734, -74.95927429199219, 174.3858184814453, -0.17477663, 2.053267, 0.7893925
3075, 3250176399, -122.00199890136719, -75.3029556274414, -179.3595428466797, -0.7074753, 1.8425361, 0.7827883
3078, 3250226400, -122.31261444091797, -75.35342407226562, -178.7334442138672, -0.026824906, 1.023465, 0.695076
3082, 3250293068, -116.8150863647461, -74.8475112915039, 176.1995391845703, 0.13389812, 0.3685655, 0.2675829
3085, 3250343069, -110.34866333007812, -74.29117584228516, 170.31283569335938, -0.009201805, 0.1686688, -0.059111595
3088, 3250393070, -104.89722442626953, -73.96526336669922, 164.54832458496094, 0.31784996, -0.40554827, -0.13498688
3091, 3250443071, -100.71485900878906, -73.51484680175781, 160.31285095214844, 0.21585049, -0.54013747, -0.1785841
3094, 3250493072, -97.23519134521484, -73.19628143310547, 156.90060424804688, 0.003951262, -0.2748702, -0.26828098
3097, 3250543073, -95.11014556884766, -72.97164916992188, 154.5074005126953, 0.5105199, -0.3536499, 0.003314972
3101, 3250609741, -92.66796112060547, -72.62995910644531, 152.61813354492188, 0.24733631, -0.15821365, 0.012122154
3104, 3250659742, -91.68668365478516, -72.5450210571289, 151.5406494140625, 0.53350955, -0.24794672, 0.05317688
3107, 3250709743, -90.94772338867188, -72.49113464355469, 150.97592163085938, 0.48987246, -0.21140817, 0.041844368
3110, 3250759744, -90.4849624633789, -72.4117202758789, 150.8240509033203, 0.2711581, -0.165664, 0.040911674
3113, 3250809745, -90.2948226928711, -72.41664123535156, 150.7504425048828, 0.3646292, -0.10964797, 0.11391926
3116, 3250859746, -90.164306640625, -72.5232162475586, 150.7042236328125, 0.5371582, -0.16497469, 0.18360996
3119, 3250909747, -89.89300537109375, -72.6439208984375, 150.70054626464844, 0.22636677, 0.08536362, 0.1023016
3123, 3250976415, -89.42539978027344, -72.86399841308594, 150.25633239746094, 0.1560496, -0.075559676, -0.006398201
3126, 3251026416, -88.78743743896484, -72.91484832763672, 149.7879180908203, 0.19599538, -0.058119852, 0.02253151
3129, 3251076417, -88.01651000976562, -72.92735290527344, 149.22703552246094, 0.18497775, -0.031286, 0.19111347
3135, 3251176419, -86.849365234375, -72.8659896850586, 148.4462890625, 0.13490102, -0.12390027, 0.14472485
3138, 3251226420, -86.66532897949219, -72.85867309570312, 148.34432983398438, 0.1392099, -0.18151689, 0.006538391
3145, 3251343089, -86.23042297363281, -72.73580169677734, 148.37277221679688, 0.43181875, -0.033354055, 0.2762766
3148, 3251393090, -85.89592742919922, -72.71791076660156, 148.21310424804688, 0.43799442, -0.105338305, 0.2689352
3151, 3251443091, -85.35359191894531, -72.69717407226562, 147.92787170410156, 0.24088393, -0.006871347, 0.13294506
3157, 3251543093, -84.41719055175781, -72.63082122802734, 147.1117401123047, 0.11844555, -0.103507064, 0.026003838
3164, 3251659762, -83.4644546508789, -72.55571746826172, 146.44650268554688, 0.37970024, -0.18339741, 0.11781025
3167, 3251709763, -83.30439758300781, -72.56961059570312, 146.47540283203125, 0.29662472, -0.07890466, 0.11680412
3170, 3251759764, -83.08352661132812, -72.72248077392578, 146.3230743408203, 0.40372744, -0.13704897, 0.3191309
3173, 3251809765, -82.8611068725586, -72.98417663574219, 146.24708557128906, 0.39145032, -0.1781196, 0.22844505
3179, 3251909767, -81.44178771972656, -73.38068389892578, 145.19325256347656, 0.15912402, -0.27739623, 0.18799877
3182, 3251959768, -80.11377716064453, -73.4626235961914, 144.35997009277344, 0.22103733, -0.10341911, 0.30041027
3186, 3252026436, -79.08447265625, -73.53951263427734, 143.79107666015625, 0.23191056, -0.27684683, 0.18969822
3189, 3252076437, -78.71614074707031, -73.6006088256836, 143.75827026367188, 0.5677873, -0.16695446, 0.18405056
3192, 3252126438, -79.35065460205078, -73.77970886230469, 145.34210205078125, 0.44498032, -0.47900012, -0.24097729
3195, 3252176439, -80.3199234008789, -74.16996765136719, 147.47079467773438, 0.45072395, -0.039602473, 0.030674934
3198, 3252226440, -81.48393249511719, -74.7489242553711, 149.4589385986328, 0.12000589, 0.10186469, 0.26597404
3201, 3252276441, -82.37025451660156, -75.30485534667969, 150.71295166015625, 0.4443035, 0.36732712, 0.15922737
3204, 3252326442, -82.70677185058594, -75.75225067138672, 151.44976806640625, 0.26972827, 0.2894077, 0.16135025
3208, 3252393110, -81.84642791748047, -75.9713363647461, 151.04249572753906, 0.08141996, 0.41482854, 0.14596748
3214, 3252493112, -78.96048736572266, -75.36012268066406, 148.0397491455078, 0.3904018, 0.14161211, 0.2358656
3217, 3252543113, -77.15055084228516, -74.91389465332031, 145.93699645996094, 0.2998527, -0.088572934, 0.33359432
3220, 3252593114, -75.4242935180664, -74.5853271484375, 143.98866271972656, 0.48042658, -0.25312886, 0.30708027
3223, 3252643115, -73.12975311279297, -74.38362884521484, 141.7377166748047, 0.37778383, -0.3626702, 0.23619556
3226, 3252693116, -70.67790222167969, -74.3796157836914, 139.46014404296875, 0.423433, -0.29046202, 0.12728691
3230, 3252759784, -68.69660186767578, -74.43183135986328, 137.42971801757812, 0.14077069, -0.24813068, -0.059106827
3233, 3252809785, -67.4977035522461, -74.41858673095703, 136.15496826171875, 0.21179216, -0.29874417, -0.10313225
3236, 3252859786, -66.30123138427734, -74.44921875, 134.97216796875, 0.6800252, -0.18433873, 0.17681599
3239, 3252909787, -64.7506103515625, -74.60604858398438, 133.56068420410156, 0.41370615, -0.070902, 0.40570068
3245, 3253009789, -61.672401428222656, -75.00775909423828, 130.57672119140625, 0.073541574, -0.090447426, 0.15725327
3252, 3253126458, -59.816680908203125, -74.8375473022461, 128.93814086914062, 0.17651378, -0.14875469, 0.3225584
3255, 3253176459, -59.379478454589844, -74.9144058227539, 128.53944396972656, 0.70022476, -0.2636885, 0.40913677
3258, 3253226460, -57.9507942199707, -75.31610870361328, 127.23340606689453, 0.44951606, -0.13922857, 0.10391617
3261, 3253276461, -55.845436096191406, -75.87484741210938, 125.2513427734375, 0.56495494, -0.051202238, 0.17632294
3264, 3253326462, -53.48583221435547, -76.32656860351562, 123.22830963134766, 0.09255381, 0.026730696, 0.076081276
3267, 3253376463, -51.42636489868164, -76.6531753540039, 121.29619598388672, 0.2818029, -0.03590881, 0.13671303
3271, 3253443131, -49.122066497802734, -76.85655212402344, 119.1883316040039, 0.16116893, -0.04474003, 0.13596249
3274, 3253493132, -47.83196258544922, -76.94673156738281, 117.92157745361328, 0.08387189, -0.22170551, 0.12612724
3277, 3253543133, -47.61377716064453, -76.92555236816406, 117.94384765625, 0.13782546, -0.04259017, 0.21370697
3280, 3253593134, -47.969112396240234, -76.80784606933594, 118.23090362548828, 0.27809325, -0.07527033, 0.27443886
3283, 3253643135, -47.76665496826172, -76.81330108642578, 118.07850646972656, 0.44747338, -0.1937369, 0.12821102
3286, 3253693136, -47.3624153137207, -76.92853546142578, 117.986572265625, 0.3307397, -0.082926214, 0.10875893
3289, 3253743137, -47.134395599365234, -76.96243286132812, 117.96712493896484, 0.18512975, 0.0222078, 0.07620907
3293, 3253809805, -47.10227584838867, -76.89715576171875, 118.12825775146484, 0.42683265, 0.052409094, 0.06479359
3296, 3253859806, -47.036678314208984, -76.80464172363281, 118.27658081054688, 0.4694865, 0.1092899, 0.097239494
3299, 3253909807, -46.662105560302734, -76.65921020507812, 117.93602752685547, 0.43730444, 0.014331539, 0.22247696
3302, 3253959808, -46.1173210144043, -76.52867889404297, 117.47055053710938, 0.40284523, -0.089566, 0.23578072
3305, 3254009809, -45.32097244262695, -76.47576141357422, 116.71295166015625, 0.26845315, -0.092707925, 0.23352146
3308, 3254059810, -44.68450164794922, -76.50275421142578, 116.0511474609375, 0.26609373, -0.12953715, 0.26098442
3324, 3254326482, -45.014122009277344, -76.69842529296875, 116.44100952148438, 0.48744285, -0.049985543, 0.12632084
3327, 3254376483, -44.395694732666016, -76.73123931884766, 115.81718444824219, 0.316727, -0.04516705, 0.054746628
3330, 3254426484, -43.70479965209961, -76.73817443847656, 115.05567169189453, 0.23575006, -0.074710324, 0.25569344
3334, 3254493152, -43.1865234375, -76.7582015991211, 114.50135040283203, 0.25695407, -0.12555225, 0.22934628
3337, 3254543153, -43.113826751708984, -76.79441833496094, 114.3401107788086, 0.3700827, -0.12331568, 0.17673683
3340, 3254593154, -42.947505950927734, -76.92723846435547, 114.1497802734375, 0.33109176, -0.18741584, 0.15411186
3343, 3254643155, -42.737266540527344, -77.0754165649414, 113.9742202758789, 0.35825798, -0.0974379, 0.05205345
3346, 3254693156, -42.34357452392578, -77.19625091552734, 113.65374755859375, 0.35439813, -0.042237356, 0.19766045
3349, 3254743157, -41.97784423828125, -77.29866027832031, 113.31453704833984, 0.4084252, 0.06720163, 0.074913025
3353, 3254809825, -40.865234375, -77.38402557373047, 112.19024658203125, 0.46515438, 0.033669323, 0.26412487
3359, 3254909827, -38.214439392089844, -77.66926574707031, 109.46131896972656, 0.3379507, -0.06846046, 0.2775612
3362, 3254959828, -37.717281341552734, -77.89764404296875, 108.76995086669922, 0.09133611, -0.14199488, 0.005337715
3365, 3255009829, -37.465206146240234, -78.0936508178711, 108.50090026855469, -0.02422344, -0.018393328, -0.0010948181
3368, 3255059830, -36.929813385009766, -78.2528305053711, 107.87633514404297, 0.14124432, -0.089998834, 0.025123596
3371, 3255109831, -36.40633010864258, -78.31519317626953, 107.46694946289062, 0.18520798, 0.055726472, 0.16554451
3375, 3255176499, -35.90981674194336, -78.33267211914062, 107.0199966430664, 0.30557573, -0.050051704, 0.31840038
3378, 3255226500, -35.17024230957031, -78.34365844726562, 106.4049072265625, 0.3004052, -0.067670114, 0.20916843
3381, 3255276501, -34.46708679199219, -78.37181854248047, 105.78802490234375, 0.20351525, -0.105044834, -0.08614254
3384, 3255326502, -34.08367156982422, -78.32872772216797, 105.43656921386719, 0.2190123, -0.0521382, -6.7043304E-4
3387, 3255376503, -34.12422561645508, -78.2388916015625, 105.55696868896484, 0.20329241, 0.046932578, 0.2515316
3393, 3255476505, -33.900936126708984, -78.07665252685547, 105.3474349975586, 0.4353089, -0.13330625, 0.2077713
3397, 3255543173, -33.27274703979492, -78.09684753417969, 104.89573669433594, 0.15876661, -0.13335855, 0.1465025
3400, 3255593174, -33.17753601074219, -78.11036682128906, 104.82323455810547, 0.31336293, -0.021791618, 0.28870106
3403, 3255643175, -33.4156608581543, -78.1515121459961, 105.13780975341797, 0.24087544, -0.007943651, 0.21697998
3406, 3255693176, -33.509666442871094, -78.17115020751953, 105.22584533691406, 0.27768645, 0.010909891, 0.1408596
3409, 3255743177, -33.55128479003906, -78.19670867919922, 105.30907440185547, 0.23021947, 0.010961969, 0.116511345
3412, 3255793178, -33.74686813354492, -78.19817352294922, 105.50177764892578, 0.09886693, -0.04232173, 0.04568863
3415, 3255843179, -34.03681182861328, -78.12982177734375, 105.79096221923828, 0.18644087, -0.035597567, 0.13648987
3419, 3255909847, -34.77328872680664, -77.9655990600586, 106.65303802490234, 0.26885366, 0.04780808, 0.25725174
3422, 3255959848, -35.297977447509766, -77.84220123291016, 107.15380859375, 0.20556733, -0.007892913, 0.15917873
3428, 3256059850, -35.74718475341797, -77.63150787353516, 107.69358825683594, 0.11438142, -0.036250897, 0.08462429
3431, 3256109851, -35.86002731323242, -77.49024200439453, 107.93501281738281, 0.2667692, 0.04728931, 0.26900768
3434, 3256159852, -36.2364616394043, -77.3663558959961, 108.42854309082031, 0.24657257, -0.009188618, 0.31007767
3441, 3256276521, -37.34477615356445, -77.14871978759766, 109.78379821777344, 0.3089016, -0.0685018, 0.17961216
3444, 3256326522, -37.5820198059082, -77.09658813476562, 110.08573913574219, 0.38840786, 0.020712499, 0.21471786
3447, 3256376523, -37.583187103271484, -77.03832244873047, 110.09989166259766, 0.49606466, 0.035357293, 0.3121376
3450, 3256426524, -37.43246841430664, -76.99501037597656, 109.97087097167969, 0.4188264, -0.092831634, 0.25197315
3453, 3256476525, -37.14955139160156, -77.01934814453125, 109.732421875, 0.28411335, -0.12572739, 0.14432526
3456, 3256526526, -36.9947395324707, -77.06454467773438, 109.58119201660156, 0.24629094, -0.06557199, 0.07814598
3460, 3256593194, -37.3059196472168, -77.09322357177734, 109.84015655517578, 0.23510724, 0.04225781, 0.11449146
3463, 3256643195, -37.71788787841797, -77.04036712646484, 110.20559692382812, 0.34307942, -0.0042223833, 0.2194128
3466, 3256693196, -38.024532318115234, -76.99415588378906, 110.50978088378906, 0.31204197, -0.008975163, 0.27573395
3469, 3256743197, -38.15171813964844, -76.953857421875, 110.60431671142578, 0.36904135, -0.039944224, 0.24473667
3472, 3256793198, -38.08589553833008, -76.94219970703125, 110.5141830444336, 0.26278597, -0.030671341, 0.13735676
3475, 3256843199, -37.911460876464844, -76.99149322509766, 110.28821563720703, 0.253575, -0.049803603, 0.1522274
3478, 3256893200, -37.804874420166016, -77.03924560546875, 110.18983459472656, 0.18121022, 0.05071263, 0.08942318
3482, 3256959868, -38.08650207519531, -76.96997833251953, 110.51863098144531, 0.20707135, 0.14125505, 0.17214966
3485, 3257009869, -38.51701736450195, -76.87606048583984, 110.89574432373047, 0.25489038, 0.0052469666, 0.13243389
3488, 3257059870, -38.76852798461914, -76.79125213623047, 111.1320571899414, 0.20452486, -0.08114504, 0.08548164
3497, 3257209873, -39.3288459777832, -76.61771392822266, 111.90446472167969, 0.26125044, -0.036885, 0.15414906
3501, 3257276541, -39.19454574584961, -76.63863372802734, 111.91450500488281, 0.26023257, 0.019409865, 0.15032482
3504, 3257326542, -39.09961700439453, -76.63519287109375, 111.94172668457031, 0.23784102, 0.023438016, 0.14827156
3507, 3257376543, -39.22140121459961, -76.58246612548828, 112.16410064697266, 0.2967803, 0.04222674, 0.19158077
3510, 3257426544, -39.58570098876953, -76.49040985107422, 112.55592346191406, 0.3723509, -0.016672725, 0.17798424
3513, 3257476545, -39.79082107543945, -76.43077087402344, 112.83006286621094, 0.27602756, 0.00847874, 0.10745239
3516, 3257526546, -39.709007263183594, -76.39869689941406, 112.7614974975586, 0.23210412, 0.00790096, 0.12060356
3519, 3257576547, -39.549598693847656, -76.30471801757812, 112.69271087646484, 0.16108936, 0.030886138, 0.1098423
3523, 3257643215, -39.6098518371582, -76.12113952636719, 112.7735824584961, 0.3103833, -0.002671874, 0.21268463
3526, 3257693216, -39.699317932128906, -76.03884887695312, 112.92166137695312, 0.21417123, -0.057891868, 0.21564865
3532, 3257793218, -39.92728042602539, -75.97606658935547, 113.2858657836914, 0.3169928, -0.03515993, 0.25658417
3535, 3257843219, -40.12997055053711, -75.9971923828125, 113.50897979736328, 0.3198714, -0.024787363, 0.17196369
3538, 3257893220, -40.208702087402344, -76.015380859375, 113.67546081542969, 0.27559796, 0.062616035, 0.15651703
3542, 3257959888, -40.15473175048828, -75.97705841064453, 113.6753158569336, 0.36873916, 0.08466246, 0.16986561
3545, 3258009889, -39.86634826660156, -75.9225845336914, 113.43423461914062, 0.25005198, 0.038143605, 0.0707283
3548, 3258059890, -39.696041107177734, -75.83948516845703, 113.24310302734375, 0.17619258, 0.024868498, 0.07444668
3554, 3258159892, -39.82198715209961, -75.60740661621094, 113.3697509765625, 0.19547996, -0.037601583, 0.19136143
3557, 3258209893, -40.022422790527344, -75.51580047607422, 113.5616455078125, 0.23682807, -0.03209378, 0.13632488
3560, 3258259894, -40.1219596862793, -75.48515319824219, 113.72322845458984, 0.31218433, -1.0661568E-4, 0.27101994
3564, 3258326562, -40.37213897705078, -75.4259033203125, 114.0468521118164, 0.2579601, 0.0405267, 0.19410038
3570, 3258426564, -40.82849884033203, -75.36396026611328, 114.48987579345703, 0.35112053, -0.02607748, 0.2289648
3573, 3258476565, -40.80957794189453, -75.29505157470703, 114.59484100341797, 0.3867114, 0.1657666, 0.399436
3576, 3258526566, -40.640953063964844, -75.26129150390625, 114.41146850585938, 0.3258877, -0.03876832, 0.18362427
3579, 3258576567, -40.063053131103516, -75.25393676757812, 113.8862533569336, 0.22280553, -0.045079768, 0.069298744
3582, 3258626568, -39.76713562011719, -75.22882080078125, 113.67391967773438, 0.15343292, -0.004541336, 0.07487011
3586, 3258693236, -40.60243606567383, -75.11275482177734, 114.31661987304688, 0.15423198, -0.08569699, 0.14335823
3589, 3258743237, -41.49309158325195, -75.06169128417969, 115.16185760498047, 0.21688646, -0.04407698, 0.21235752
3592, 3258793238, -41.82585144042969, -75.0489273071289, 115.59114837646484, 0.3673272, 0.033574328, 0.3250265
3595, 3258843239, -41.7059211730957, -75.1107406616211, 115.58304595947266, 0.33166507, 0.057070903, 0.2557354
3598, 3258893240, -41.703697204589844, -75.11054229736328, 115.67813110351562, 0.2519476, -0.003606605, 0.17252445
3604, 3258993242, -41.84429931640625, -75.16268920898438, 115.96672058105469, 0.39027286, 0.091645, 0.18002796
3611, 3259109911, -41.24541091918945, -75.17440032958984, 115.42324829101562, 0.23007731, 0.05612209, 0.07009983
3614, 3259159912, -41.30661392211914, -75.11266326904297, 115.5226821899414, 0.059318326, 0.028867593, 0.12464142
3617, 3259209913, -41.87767791748047, -75.02198791503906, 116.04930114746094, 0.06637038, 0.032834277, 0.25059414
3620, 3259259914, -42.92434310913086, -74.9466552734375, 117.16818237304688, -0.0391626, -0.015658647, 0.38690948
3623, 3259309915, -44.03983688354492, -74.93827056884766, 118.54558563232422, -0.19593704, -0.19153562, 0.30299568
3627, 3259376583, -44.57585906982422, -75.19622039794922, 119.95361328125, -0.51804066, -0.2098248, 0.42241096
3630, 3259426584, -44.26139831542969, -75.67221069335938, 120.66496276855469, -0.6627702, -0.48208058, 0.30412483
3633, 3259476585, -43.60681915283203, -76.25342559814453, 121.76917266845703, -0.6020154, -0.56715745, 0.28506184
3636, 3259526586, -42.866111755371094, -76.97335815429688, 123.51821899414062, -0.8142016, -0.58873, 0.23708344
3639, 3259576587, -41.76921081542969, -77.80818939208984, 125.3620834350586, -0.6170379, -0.6710547, 0.21968651
3642, 3259626588, -40.97169494628906, -78.72514343261719, 128.03314208984375, -0.680407, -0.8579051, 0.22428799
3645, 3259676589, -40.70842361450195, -79.63404846191406, 131.9385223388672, -0.5199602, -1.0965905, 0.17652702
3649, 3259743257, -40.645545959472656, -80.7601547241211, 138.43846130371094, 0.13067149, -1.080828, 0.19724083
3652, 3259793258, -41.02249526977539, -81.55457305908203, 144.3997802734375, 0.5413696, -1.092146, 0.25023746
3655, 3259843259, -42.93476104736328, -82.29070281982422, 151.7224884033203, 1.0587687, -0.97543454, 0.110687256
3658, 3259893260, -48.76412582397461, -82.89032745361328, 163.35549926757812, 1.2471552, -0.7659431, 0.12225342
3661, 3259943261, -57.930023193359375, -83.0762939453125, 177.87770080566406, 1.1957363, -0.692225, 4.4059753E-4
3664, 3259993262, -69.03057861328125, -82.68504333496094, -165.96669006347656, 1.5306269, -0.1335138, -0.20669365
3671, 3260109931, -87.2541275024414, -80.43287658691406, -136.67787170410156, 1.3115177, 0.67397064, -0.09075642
3674, 3260159932, -91.58507537841797, -79.60376739501953, -128.1794891357422, 1.1099283, 0.17150652, 0.12779617
3677, 3260209933, -94.69422912597656, -79.09761047363281, -120.74279022216797, 1.2211531, 0.9826699, -0.31417465
3680, 3260259934, -95.98114776611328, -78.83588409423828, -115.13517761230469, 1.0642158, 1.112083, -0.05928898
3683, 3260309935, -97.20340728759766, -78.6113052368164, -110.26184844970703, 0.9212639, 0.8587099, 0.07646465
3686, 3260359936, -97.68032836914062, -78.27506256103516, -106.24214935302734, 0.86971945, 0.9923907, 0.08791733
3690, 3260426604, -96.91326904296875, -78.03350067138672, -103.27263641357422, 1.1445327, 0.6219326, -0.18001842
3693, 3260476605, -95.73914337158203, -77.9963150024414, -101.74015045166016, 0.95781595, 1.0851165, 0.01213932
3696, 3260526606, -94.4397201538086, -77.98103332519531, -100.16019439697266, 0.85835534, 0.6758828, 0.2388506
3699, 3260576607, -92.921142578125, -78.1821060180664, -99.66484832763672, 0.7693413, 1.2165942, 0.43194866
3705, 3260676609, -91.47712707519531, -79.39019012451172, -97.96984100341797, 0.6303326, 0.99987334, -0.14232063
3708, 3260726610, -90.46249389648438, -79.98143005371094, -98.20750427246094, 0.2822673, 1.4246088, 0.2938738
3712, 3260793278, -89.87867736816406, -79.90721893310547, -98.74695587158203, 0.49032173, 0.6703332, 0.25896358
3715, 3260843279, -89.413330078125, -79.50473022460938, -100.05299377441406, 0.6428173, 0.8596624, 0.44039917
3718, 3260893280, -88.95679473876953, -79.09611511230469, -101.1751708984375, 0.8771019, 0.27013525, 0.113227844
3721, 3260943281, -87.75946044921875, -78.95980072021484, -102.90095520019531, 0.81435776, 0.24130243, 0.05839157
3724, 3260993282, -86.92668151855469, -78.97960662841797, -104.133056640625, 0.86708045, 0.31710973, 0.22654247
3727, 3261043283, -86.36795806884766, -79.03346252441406, -104.73129272460938, 0.8191145, 0.11192545, 0.24096775
3730, 3261093284, -86.54457092285156, -79.04193878173828, -104.43348693847656, 0.75870633, 0.12491864, 0.094306946
3734, 3261159952, -86.30619812011719, -79.13851165771484, -104.61906433105469, 0.796586, 0.13157539, -0.18467522
3740, 3261259954, -85.32708740234375, -79.16653442382812, -105.04395294189453, 0.45535076, 0.37451273, 0.11544514
3743, 3261309955, -84.54824829101562, -79.35589599609375, -105.92800903320312, 0.5322246, 0.41081983, 0.2157278
3746, 3261359956, -83.80526733398438, -79.43433380126953, -106.70977020263672, 0.39323977, 0.28238216, 0.1500063
3753, 3261476625, -82.0424575805664, -79.10694885253906, -108.97286987304688, 0.76763326, 0.049287464, 0.309227
3756, 3261526626, -82.32404327392578, -78.98883819580078, -108.83419036865234, 0.7891002, 0.1868324, 0.21167469
3759, 3261576627, -82.7684555053711, -79.00187683105469, -108.41050720214844, 0.7460736, 0.09454042, -0.010361671
3765, 3261676629, -84.35098266601562, -79.18231201171875, -106.62123107910156, 0.53884727, 0.084445395, 0.031627655
3768, 3261726630, -84.99728393554688, -79.21745300292969, -105.9700927734375, 0.44766203, 0.24743068, 0.026816368
3771, 3261776631, -85.33189392089844, -79.18428039550781, -105.60295867919922, 0.5620766, 0.23847826, 0.16973591
3775, 3261843299, -84.9566421508789, -79.05274200439453, -105.89865112304688, 0.5045318, 0.2882141, 0.22355652
3781, 3261943301, -85.04088592529297, -78.9840316772461, -105.9947738647461, 0.6376662, 0.30833945, 0.24330425
3784, 3261993302, -85.18231201171875, -78.91480255126953, -105.92577362060547, 0.64948565, 0.30370593, 0.09865761
3787, 3262043303, -85.56583404541016, -78.84078216552734, -105.5791244506836, 0.5350976, 0.27407086, 0.12355995
3790, 3262093304, -85.77752685546875, -78.87110900878906, -105.43850708007812, 0.5747838, 0.22735004, 0.12339783
3793, 3262143305, -85.6873779296875, -78.99413299560547, -105.51392364501953, 0.5504769, 0.2362817, 0.15607357
3797, 3262209973, -85.3394546508789, -79.11920928955078, -105.78794860839844, 0.53347075, 0.16918486, 0.09168625
3800, 3262259974, -85.14833068847656, -79.07685089111328, -105.95835876464844, 0.56561565, 0.15499464, 0.15202808
3803, 3262309975, -85.04319763183594, -78.93998718261719, -106.01849365234375, 0.54576176, 0.21348849, 0.13397694
3806, 3262359976, -85.2005615234375, -78.83177947998047, -105.92362213134766, 0.59868604, 0.30189487, 0.18087101
3809, 3262409977, -85.31825256347656, -78.74994659423828, -105.80040740966797, 0.5400421, 0.18947645, 0.25119495
3812, 3262459978, -85.19835662841797, -78.70448303222656, -105.9219970703125, 0.68956745, 0.26424915, 0.12138271
3816, 3262526646, -85.31285095214844, -78.66706085205078, -105.78075408935547, 0.63264, 0.22531188, 0.08254814
3819, 3262576647, -85.37583923339844, -78.58499145507812, -105.71328735351562, 0.5420868, 0.26038367, 0.07518101
3822, 3262626648, -85.66139221191406, -78.44430541992188, -105.55654907226562, 0.5623541, 0.29254654, 0.09720993
3825, 3262676649, -85.55680084228516, -78.310302734375, -105.75789642333984, 0.62880176, 0.34433383, -0.04139614
3828, 3262726650, -85.23834228515625, -78.19346618652344, -106.09297180175781, 0.56544983, 0.27661514, 0.013450623
3831, 3262776651, -84.93757629394531, -78.0896987915039, -106.38862609863281, 0.48006743, 0.16220137, 0.047979355
3834, 3262826652, -84.67656707763672, -77.98248291015625, -106.63775634765625, 0.37799948, 0.17350931, 0.103702545
3838, 3262893320, -84.2056655883789, -77.79427337646484, -107.2340087890625, 0.54183745, 0.31727, 0.29119968
3844, 3262993322, -82.61470031738281, -77.44601440429688, -108.79838562011719, 0.58550215, 0.256351, 0.26676083
3847, 3263043323, -82.61274719238281, -77.43373107910156, -108.7786865234375, 0.5593411, 0.1877481, 0.16238976
3850, 3263093324, -82.62751770019531, -77.47607421875, -108.66849517822266, 0.46624613, 0.2804754, 0.057510376
