sep=,
DeviceTag:,Xsens_3,,,,,,,,,,,,,,,,,
FirmwareVersion:,2.2.1,,,,,,,,,,,,,,,,,
AppVersion:,2022.0.1,,,,,,,,,,,,,,,,,
SyncStatus:,Synced,,,,,,,,,,,,,,,,,
OutputRate:,60Hz,,,,,,,,,,,,,,,,,
FilterProfile:,General,,,,,,,,,,,,,,,,,
Measurement Mode:,Sensor fusion Mode - Complete (Euler),,,,,,,,,,,,,,,,,
StartTime:,2023-05-17 15:21:16.696 +0200,,,,,,,,,,,,,,,,,
© Xsens Technologies B. V. 2005-2023,,,,,,,,,,,,,,,,,,,

PacketCounter,SampleTimeFine,Euler_X,Euler_Y,Euler_Z,FreeAcc_X,FreeAcc_Y,FreeAcc_Z
1, 3198892040, -147.95516967773438, 69.26248168945312, 22.718738555908203, 0.12960833, 0.13576601, -0.210536
2, 3198908707, -147.81002807617188, 69.2016830444336, 22.98543357849121, 0.113183044, 0.109057, 0.049533844
3, 3198925374, -147.5763702392578, 69.14234924316406, 23.305343627929688, -0.07617141, 0.04111331, 0.2367506
4, 3198942041, -147.2293243408203, 69.10187530517578, 23.714096069335938, -0.23044871, -0.024689576, 0.25249004
5, 3198958708, -146.76541137695312, 69.08085632324219, 24.24622344970703, -0.39145368, -0.0644342, 0.21165657
6, 3198975375, -146.21560668945312, 69.0744400024414, 24.860246658325195, -0.3861254, -0.15496142, 0.13429356
7, 3198992042, -145.63194274902344, 69.06816101074219, 25.45787239074707, -0.1793794, -0.13181554, 0.0021781921
8, 3199008709, -145.0886993408203, 69.05353546142578, 25.978057861328125, -0.14816782, -0.1328322, -0.075406075
9, 3199025376, -144.61029052734375, 69.03825378417969, 26.446083068847656, -0.19479603, -0.23839462, -0.05426693
10, 3199042043, -144.18768310546875, 69.03870391845703, 26.908998489379883, -0.18257764, -0.34708366, -0.07277298
11, 3199058710, -143.7845458984375, 69.04469299316406, 27.387556076049805, -0.16929133, -0.29673553, -0.14954376
12, 3199075377, -143.37022399902344, 69.04766845703125, 27.928382873535156, -0.21371603, -0.12241469, -0.19379139
13, 3199092044, -142.91107177734375, 69.04899597167969, 28.5421085357666, -0.18474786, 0.04675589, -0.13682938
14, 3199108711, -142.40206909179688, 69.05270385742188, 29.182933807373047, -0.11080525, 0.16434874, -0.09705353
15, 3199125378, -141.8694610595703, 69.06295013427734, 29.795246124267578, -0.06956768, 0.19404379, -0.085214615
16, 3199142045, -141.32554626464844, 69.0707015991211, 30.347728729248047, 0.0032342228, 0.12053137, -0.047060966
17, 3199158712, -140.75926208496094, 69.07791137695312, 30.8601131439209, -0.02274898, 0.030440789, -0.07549095
18, 3199175379, -140.1908416748047, 69.07807922363281, 31.35243034362793, -0.041093178, -0.06395835, -0.1396265
19, 3199192046, -139.6415557861328, 69.07259368896484, 31.84034538269043, -0.0620582, -0.15391617, -0.15192986
20, 3199208713, -139.1417999267578, 69.06216430664062, 32.318050384521484, -0.06514188, -0.2581726, -0.14457035
21, 3199225380, -138.71661376953125, 69.04866790771484, 32.7633171081543, -0.054144744, -0.23418748, -0.1672287
22, 3199242047, -138.3404998779297, 69.0347900390625, 33.18986511230469, -0.048944935, -0.13761055, -0.19619465
23, 3199258714, -138.0067596435547, 69.01526641845703, 33.59970474243164, -0.0084615685, -0.05235668, -0.18909454
24, 3199275381, -137.70230102539062, 68.9849624633789, 33.993675231933594, -0.07554605, 0.03206349, -0.16732025
25, 3199292048, -137.42274475097656, 68.94535827636719, 34.345458984375, -0.10447978, 0.11712438, -0.15012741
26, 3199308715, -137.137939453125, 68.89387512207031, 34.682010650634766, -0.19671093, 0.11366058, -0.083678246
27, 3199325382, -136.8330841064453, 68.83866119384766, 35.036712646484375, -0.15961343, 0.088402726, -0.024513245
28, 3199342049, -136.49661254882812, 68.78667449951172, 35.41743850708008, -0.08291008, 0.04084945, -0.03196144
29, 3199358716, -136.16616821289062, 68.73188781738281, 35.80189514160156, -0.028958997, -0.04273456, -0.093732834
30, 3199375383, -135.8525390625, 68.67076110839844, 36.185081481933594, 0.014865319, -0.14799653, -0.1708746
31, 3199392050, -135.579345703125, 68.59797668457031, 36.541439056396484, 0.042051177, -0.26284638, -0.16695023
32, 3199408717, -135.35137939453125, 68.52881622314453, 36.86069107055664, 0.048715353, -0.27064502, -0.18799305
33, 3199425384, -135.15402221679688, 68.47219848632812, 37.14361572265625, 0.06737816, -0.2293181, -0.28197956
34, 3199442051, -134.97805786132812, 68.42332458496094, 37.39900588989258, 0.050202224, -0.16006948, -0.37824535
35, 3199458718, -134.82028198242188, 68.37513732910156, 37.62164306640625, 0.0020529001, -0.15376495, -0.4129734
36, 3199475385, -134.68557739257812, 68.3260269165039, 37.807411193847656, 0.009117537, -0.16286607, -0.44443226
37, 3199492052, -134.5948028564453, 68.27674102783203, 37.934566497802734, -0.06542368, -0.17418644, -0.38729286
38, 3199508719, -134.53857421875, 68.24391174316406, 38.01874542236328, -0.121684186, -0.1856322, -0.2437334
39, 3199525386, -134.47998046875, 68.23430633544922, 38.09371566772461, -0.12065094, -0.18359768, -0.18472862
40, 3199542053, -134.4015350341797, 68.22767639160156, 38.16926193237305, -0.10870812, -0.19752666, -0.11082935
41, 3199558720, -134.31857299804688, 68.21561431884766, 38.23235321044922, -0.042705443, -0.13561773, 0.0030155182
42, 3199575387, -134.24795532226562, 68.20905303955078, 38.28319549560547, 0.033179745, -0.0075970935, 0.020021439
43, 3199592054, -134.16180419921875, 68.21236419677734, 38.33765411376953, 0.034499295, 0.055024978, -0.05112648
44, 3199608721, -134.0406951904297, 68.22110748291016, 38.405609130859375, 0.0050238483, 0.13544439, -0.123062134
45, 3199625388, -133.90989685058594, 68.22819519042969, 38.46208190917969, -0.046578072, 0.10732522, -0.123758316
46, 3199642055, -133.78091430664062, 68.23574829101562, 38.52346420288086, -0.068045475, 0.03310227, -0.11937046
47, 3199658722, -133.6397247314453, 68.24859619140625, 38.62652587890625, -0.13122566, -0.024588883, -0.13048935
48, 3199675389, -133.49009704589844, 68.25838470458984, 38.76321029663086, -0.16627903, -0.095690034, -0.12113094
49, 3199692056, -133.34197998046875, 68.27012634277344, 38.913455963134766, -0.15488797, -0.15864134, -0.1590128
50, 3199708723, -133.20484924316406, 68.29393005371094, 39.058231353759766, -0.042073805, -0.20749132, -0.20959854
51, 3199725390, -133.065673828125, 68.33039093017578, 39.200828552246094, 0.012394251, -0.18083394, -0.2804079
52, 3199742057, -132.9471435546875, 68.3724136352539, 39.32620620727539, 0.09670858, -0.10152584, -0.30885315
53, 3199758724, -132.86911010742188, 68.4120864868164, 39.41814041137695, 0.15579471, -0.08330205, -0.32586002
54, 3199775391, -132.82485961914062, 68.44853973388672, 39.46479415893555, 0.18166767, -0.09581732, -0.31006622
55, 3199792058, -132.811279296875, 68.48177337646484, 39.45945358276367, 0.20209652, -0.16433612, -0.3381338
56, 3199808725, -132.82931518554688, 68.5119857788086, 39.42029571533203, 0.18422534, -0.22460705, -0.33028412
57, 3199825392, -132.86778259277344, 68.5345687866211, 39.3503532409668, 0.12936312, -0.20868108, -0.32032394
58, 3199842059, -132.92465209960938, 68.55018615722656, 39.257568359375, 0.1252892, -0.14168856, -0.29026985
59, 3199858726, -132.99343872070312, 68.56011962890625, 39.14282989501953, 0.19458705, -0.08448175, -0.29315186
60, 3199875393, -133.06161499023438, 68.56117248535156, 39.0046272277832, 0.23717418, -0.037335828, -0.2671728
61, 3199892060, -133.1410369873047, 68.5550308227539, 38.84812927246094, 0.18506864, -0.09405749, -0.23499107
62, 3199908727, -133.240966796875, 68.55260467529297, 38.69541549682617, 0.08851043, -0.13819024, -0.26008606
63, 3199925394, -133.36109924316406, 68.55477142333984, 38.524574279785156, 0.018035118, -0.12485858, -0.3066206
64, 3199942061, -133.486083984375, 68.5559310913086, 38.33979797363281, 0.026537275, -0.16875564, -0.36387444
65, 3199958728, -133.62818908691406, 68.54366302490234, 38.138336181640625, 0.06132282, -0.21759701, -0.34192085
66, 3199975395, -133.82850646972656, 68.52400970458984, 37.9146614074707, 0.07735816, -0.1868556, -0.2783003
67, 3199992062, -134.0827178955078, 68.50658416748047, 37.69417190551758, 0.064117454, -0.21150249, -0.20059204
68, 3200008729, -134.329833984375, 68.4891586303711, 37.49717330932617, 0.020514553, -0.22022419, -0.14290047
69, 3200025396, -134.5516815185547, 68.47018432617188, 37.33891296386719, 0.054450877, -0.17692424, -0.08320999
70, 3200042063, -134.75985717773438, 68.45393371582031, 37.205257415771484, -0.013673845, -0.13988212, -0.08287239
71, 3200058730, -134.9292755126953, 68.4378433227539, 37.08074951171875, -0.002965982, -0.06605814, -0.10778713
72, 3200075397, -135.0754852294922, 68.42241668701172, 36.93541717529297, 0.016424553, -0.044923086, -0.16366768
73, 3200092064, -135.19285583496094, 68.39909362792969, 36.79151153564453, 0.030159758, -0.06060503, -0.12750435
74, 3200108731, -135.28150939941406, 68.3648910522461, 36.658138275146484, -0.020497147, -0.12944674, -0.013553619
75, 3200125398, -135.3347930908203, 68.33536529541016, 36.56644058227539, -0.06897965, -0.27742696, -0.032464027
76, 3200142065, -135.37118530273438, 68.32266235351562, 36.53301239013672, -0.06897608, -0.36155355, -0.1424942
77, 3200158732, -135.39427185058594, 68.32681274414062, 36.549564361572266, -0.030292613, -0.37999544, -0.26335335
78, 3200175399, -135.42092895507812, 68.33004760742188, 36.55463409423828, -0.041192252, -0.20616858, -0.27767658
79, 3200192066, -135.4570770263672, 68.32195281982422, 36.51252746582031, 0.001719583, -0.038504243, -0.23034286
80, 3200208733, -135.4711456298828, 68.30706024169922, 36.43516540527344, 0.19662382, 0.029364461, -0.21823311
81, 3200225400, -135.4609375, 68.27278137207031, 36.33287811279297, 0.33121642, -0.033468384, -0.25243092
82, 3200242067, -135.4698028564453, 68.23661041259766, 36.234657287597656, 0.23905024, -0.18142167, -0.24845886
83, 3200258734, -135.53228759765625, 68.21896362304688, 36.14025115966797, 0.12862398, -0.29012424, -0.24023724
84, 3200275401, -135.64859008789062, 68.21842956542969, 36.02647018432617, -0.023538748, -0.27407113, -0.25506592
85, 3200292068, -135.7639923095703, 68.22049713134766, 35.90333938598633, -0.08229473, -0.2661, -0.2231512
86, 3200308735, -135.84239196777344, 68.21868896484375, 35.796180725097656, 0.020203196, -0.2415453, -0.20223522
87, 3200325402, -135.90444946289062, 68.21961975097656, 35.71319580078125, 0.0762957, -0.23661461, -0.1856165
88, 3200342069, -135.9586944580078, 68.22972106933594, 35.64405822753906, 0.10290344, -0.15761898, -0.17751122
89, 3200358736, -136.0019989013672, 68.24624633789062, 35.58345413208008, 0.1275606, -0.042656664, -0.13256264
90, 3200375403, -136.00787353515625, 68.26559448242188, 35.52707290649414, 0.15712562, -0.0036568996, -0.15692425
91, 3200392070, -135.99868774414062, 68.28058624267578, 35.462554931640625, 0.21311891, -0.08546353, -0.2301302
92, 3200408737, -136.0160369873047, 68.28446197509766, 35.341915130615234, 0.13765864, -0.2068485, -0.2669363
93, 3200425404, -136.0349578857422, 68.29863739013672, 35.23298645019531, 0.05353006, -0.3133094, -0.32222366
94, 3200442071, -136.06275939941406, 68.32028198242188, 35.147830963134766, 0.038218528, -0.30557507, -0.3890524
95, 3200458738, -136.1228790283203, 68.33818817138672, 35.061485290527344, 0.0835793, -0.23271018, -0.36161518
96, 3200475405, -136.24386596679688, 68.34480285644531, 34.9298095703125, 0.09828865, -0.20997399, -0.28871727
97, 3200492072, -136.37794494628906, 68.34955596923828, 34.79927062988281, 0.11150179, -0.24039869, -0.22422028
98, 3200508739, -136.50430297851562, 68.3524169921875, 34.67795181274414, 0.055498432, -0.19395337, -0.16843033
99, 3200525406, -136.60951232910156, 68.35850524902344, 34.56471633911133, 0.01317297, -0.13022748, -0.09781265
100, 3200542073, -136.6636962890625, 68.36811065673828, 34.485076904296875, -0.008252463, -0.11952467, -0.04984188
101, 3200558740, -136.6635284423828, 68.3819351196289, 34.43748474121094, -0.011363256, -0.079339385, -0.06803894
102, 3200575407, -136.65354919433594, 68.39439392089844, 34.38652801513672, 0.030895498, -0.06415202, -0.12726402
103, 3200592074, -136.6526336669922, 68.407958984375, 34.31874465942383, 0.048987854, -0.118802056, -0.11414719
104, 3200608741, -136.64305114746094, 68.4286880493164, 34.24416732788086, 0.033662397, -0.17211738, -0.16937733
105, 3200625408, -136.62158203125, 68.44827270507812, 34.18606185913086, 0.016596543, -0.20026839, -0.21778584
106, 3200642075, -136.60693359375, 68.46233367919922, 34.14252471923828, -0.024598373, -0.2589753, -0.19909573
107, 3200658742, -136.59959411621094, 68.48066711425781, 34.10866928100586, -0.005381696, -0.24354397, -0.20392418
108, 3200675409, -136.59837341308594, 68.5024185180664, 34.08933639526367, 0.028018758, -0.18897986, -0.2127657
109, 3200692076, -136.58900451660156, 68.5234375, 34.089778900146484, -0.021350374, -0.083529025, -0.22612953
110, 3200708743, -136.57330322265625, 68.5420913696289, 34.07839584350586, 0.008026733, -0.06763949, -0.23155117
111, 3200725410, -136.5557098388672, 68.54815673828125, 34.05363845825195, 0.06786214, -0.12804733, -0.17114544
112, 3200742077, -136.5522918701172, 68.55137634277344, 34.00934600830078, 0.078714825, -0.20016457, -0.17580605
113, 3200758744, -136.5612030029297, 68.55450439453125, 33.9578857421875, 0.092983924, -0.28854594, -0.22297668
114, 3200775411, -136.5738525390625, 68.55915069580078, 33.91361999511719, 0.058419295, -0.28732926, -0.2342968
115, 3200792078, -136.59561157226562, 68.56707000732422, 33.887569427490234, 0.005651718, -0.25302616, -0.23326588
116, 3200808745, -136.61410522460938, 68.5806655883789, 33.885318756103516, 0.05594416, -0.23747604, -0.23768425
117, 3200825412, -136.6176300048828, 68.59367370605469, 33.88219451904297, 0.05956598, -0.21089184, -0.2366867
118, 3200842079, -136.61483764648438, 68.59970092773438, 33.86822509765625, 0.021095105, -0.21562217, -0.17048931
119, 3200858746, -136.59474182128906, 68.61050415039062, 33.851463317871094, -0.021506505, -0.23471084, -0.15481186
120, 3200875413, -136.5699920654297, 68.62376403808594, 33.8316764831543, 0.036756456, -0.2437668, -0.17484474
121, 3200892080, -136.5605926513672, 68.6355209350586, 33.79475021362305, 0.046451494, -0.21896358, -0.16556168
122, 3200908747, -136.56105041503906, 68.65176391601562, 33.75559616088867, 0.05986137, -0.20020038, -0.15238953
123, 3200925414, -136.55624389648438, 68.66995239257812, 33.732643127441406, 0.009549793, -0.17144416, -0.20118427
124, 3200942081, -136.55775451660156, 68.68431091308594, 33.698883056640625, -0.0416509, -0.115138784, -0.23309708
125, 3200958748, -136.57223510742188, 68.68783569335938, 33.664581298828125, -0.0569925, -0.11941705, -0.2189827
126, 3200975415, -136.592529296875, 68.68428802490234, 33.63490676879883, -0.053718045, -0.13591811, -0.13949776
127, 3200992082, -136.60281372070312, 68.6811752319336, 33.62551498413086, -0.022860143, -0.16860734, -0.1261797
128, 3201008749, -136.5918731689453, 68.67839050292969, 33.62970733642578, -0.049088698, -0.1787347, -0.091376305
129, 3201025416, -136.55987548828125, 68.67924499511719, 33.66023635864258, -0.07294335, -0.15728864, -0.08807182
130, 3201042083, -136.51075744628906, 68.68685150146484, 33.721004486083984, -0.027923249, -0.113606274, -0.070674896
131, 3201058750, -136.45684814453125, 68.69820404052734, 33.763919830322266, -0.0415252, -0.070532195, -0.1420021
132, 3201075417, -136.38790893554688, 68.70806121826172, 33.79624557495117, 0.01200547, -0.028656373, -0.18861866
133, 3201092084, -136.28883361816406, 68.71715545654297, 33.84556198120117, 0.001602422, -0.075732894, -0.23021317
134, 3201108751, -136.1805419921875, 68.72150421142578, 33.91996383666992, -0.02262378, -0.14786097, -0.2475853
135, 3201125418, -136.10552978515625, 68.72239685058594, 33.9780387878418, -0.031998117, -0.23317721, -0.26053047
136, 3201142085, -136.0733184814453, 68.72006225585938, 34.01579284667969, -0.063109994, -0.2548154, -0.25561142
137, 3201158752, -136.06094360351562, 68.71465301513672, 34.04234313964844, 0.0099178795, -0.20694126, -0.25328827
138, 3201175419, -136.0623779296875, 68.70267486572266, 34.06053161621094, 0.05779434, -0.16659868, -0.17713451
139, 3201192086, -136.07357788085938, 68.69158935546875, 34.07352828979492, 0.068859704, -0.14025763, -0.15168762
140, 3201208753, -136.10609436035156, 68.68392181396484, 34.05232620239258, 0.040157706, -0.1329588, -0.19128036
141, 3201225420, -136.11973571777344, 68.67969512939453, 34.0487174987793, 0.0044833785, -0.11587984, -0.18504906
142, 3201242087, -136.11085510253906, 68.6761245727539, 34.065067291259766, -0.05713339, -0.12955515, -0.14389515
143, 3201258754, -136.0888214111328, 68.67439270019531, 34.0767822265625, -0.069994815, -0.12725744, -0.15579796
144, 3201275421, -136.0702362060547, 68.67082214355469, 34.079994201660156, -0.0024243498, -0.16769193, -0.09748268
145, 3201292088, -136.04388427734375, 68.6700210571289, 34.07563018798828, 0.015185833, -0.20068647, -0.11111832
146, 3201308755, -136.01844787597656, 68.67574310302734, 34.084259033203125, 0.058717176, -0.14059234, -0.16956425
147, 3201325422, -135.9951629638672, 68.68367767333984, 34.09357452392578, -0.0075430516, -0.06512162, -0.26239777
148, 3201342089, -135.96690368652344, 68.68505859375, 34.11458206176758, -0.029659785, -0.07560828, -0.24656391
149, 3201358756, -135.9640350341797, 68.67711639404297, 34.100284576416016, -0.017111901, -0.07989996, -0.20224953
150, 3201375423, -135.97882080078125, 68.6712875366211, 34.039852142333984, 0.015805341, -0.1308579, -0.18655014
151, 3201392090, -135.98597717285156, 68.66808319091797, 34.002288818359375, 0.047244765, -0.19205809, -0.17532825
152, 3201408757, -135.97903442382812, 68.67072296142578, 34.007015228271484, 0.011641634, -0.20877942, -0.20606041
153, 3201425424, -135.9858856201172, 68.67375946044922, 34.024559020996094, -0.03973532, -0.199911, -0.23789501
154, 3201442091, -136.04994201660156, 68.67388916015625, 33.99626541137695, 0.015286725, -0.17631853, -0.24480438
155, 3201458758, -136.13323974609375, 68.6697006225586, 33.93400955200195, 0.054040924, -0.120813906, -0.18883133
156, 3201475425, -136.19845581054688, 68.65943145751953, 33.87455368041992, 0.024460886, -0.1259748, -0.14018536
157, 3201492092, -136.22080993652344, 68.65150451660156, 33.834293365478516, -0.00715439, -0.15587011, -0.09874058
158, 3201508759, -136.21707153320312, 68.6480712890625, 33.81965637207031, -0.050265726, -0.14742434, -0.047528267
159, 3201525426, -136.2032012939453, 68.65789794921875, 33.8184700012207, -0.05863166, -0.13991252, -0.08397007
160, 3201542093, -136.1784210205078, 68.67316436767578, 33.81788635253906, -0.03119935, -0.11234812, -0.15737915
161, 3201558760, -136.13648986816406, 68.68931579589844, 33.82865905761719, 0.029255893, -0.06810887, -0.23397255
162, 3201575427, -136.09378051757812, 68.70057678222656, 33.818450927734375, 0.05002298, -0.07767288, -0.30446625
163, 3201592094, -136.05502319335938, 68.70636749267578, 33.81064224243164, 0.04796719, -0.1418411, -0.33192444
164, 3201608761, -136.03436279296875, 68.70973205566406, 33.80535888671875, 0.0081632305, -0.198008, -0.2898903
165, 3201625428, -136.05430603027344, 68.71096801757812, 33.77046585083008, 1.9239052E-4, -0.23723766, -0.26501465
166, 3201642095, -136.1073455810547, 68.71414947509766, 33.702579498291016, 0.02801559, -0.24645008, -0.28235626
167, 3201658762, -136.17001342773438, 68.70954132080078, 33.635589599609375, 0.050650626, -0.20920242, -0.2167654
168, 3201675429, -136.229248046875, 68.7008056640625, 33.58852005004883, 0.064278126, -0.1318514, -0.14702511
169, 3201692096, -136.28964233398438, 68.69309997558594, 33.55888366699219, 0.0657875, -0.09736526, -0.13788128
170, 3201708763, -136.3568115234375, 68.68424987792969, 33.52228546142578, 0.013457321, -0.14052561, -0.16200829
171, 3201725430, -136.42115783691406, 68.67727661132812, 33.48379898071289, -0.023049466, -0.17809293, -0.1436348
172, 3201742097, -136.461181640625, 68.66866302490234, 33.44846725463867, -0.02571545, -0.18222374, -0.15586281
173, 3201758764, -136.47732543945312, 68.66105651855469, 33.41564178466797, 0.025830658, -0.19956298, -0.1546297
174, 3201775431, -136.4827880859375, 68.65228271484375, 33.38465118408203, 0.032133136, -0.16452655, -0.17957401
175, 3201792098, -136.484619140625, 68.64639282226562, 33.37006378173828, 3.432251E-4, -0.14896557, -0.16459846
176, 3201808765, -136.48477172851562, 68.65003204345703, 33.354557037353516, -0.021275325, -0.1745045, -0.15547562
177, 3201825432, -136.48818969726562, 68.6595687866211, 33.34785079956055, -0.008330346, -0.18821356, -0.20920277
178, 3201842099, -136.48410034179688, 68.66786193847656, 33.33391571044922, -0.0029403279, -0.14247912, -0.23762608
179, 3201858766, -136.48428344726562, 68.67036437988281, 33.30974578857422, 0.023940144, -0.11743516, -0.24141598
180, 3201875433, -136.48216247558594, 68.67591857910156, 33.29191589355469, 0.043906752, -0.11999047, -0.2834301
181, 3201892100, -136.49159240722656, 68.68309783935547, 33.27094650268555, 0.039904103, -0.1399379, -0.27892876
182, 3201908767, -136.5133056640625, 68.6873550415039, 33.24617004394531, 0.03585904, -0.14793406, -0.25549412
183, 3201925434, -136.54359436035156, 68.68722534179688, 33.19889831542969, 0.051822487, -0.18260774, -0.22224522
184, 3201942101, -136.57867431640625, 68.68620300292969, 33.16256332397461, 0.018507684, -0.20925741, -0.23451519
185, 3201958768, -136.64053344726562, 68.68147277832031, 33.11139678955078, -0.008596549, -0.19143918, -0.232934
186, 3201975435, -136.72035217285156, 68.67276763916016, 33.05656051635742, 3.7629803E-4, -0.24443221, -0.13490963
187, 3201992102, -136.78369140625, 68.66889190673828, 33.0239372253418, 0.025568984, -0.23096164, -0.13293552
188, 3202008769, -136.8291473388672, 68.66600036621094, 33.00341033935547, 0.022366323, -0.18258315, -0.11491203
189, 3202025436, -136.85629272460938, 68.66365814208984, 32.96977233886719, -0.025474453, -0.123811536, -0.08941078
190, 3202042103, -136.85299682617188, 68.6700210571289, 32.93347930908203, -0.025041718, -0.108732015, -0.122481346
191, 3202058770, -136.8152618408203, 68.67745208740234, 32.930030822753906, -0.011282085, -0.0997516, -0.15773678
192, 3202075437, -136.7603759765625, 68.69002532958984, 32.93966293334961, -0.020871103, -0.09174894, -0.15406704
193, 3202092104, -136.70826721191406, 68.70376586914062, 32.94058609008789, -0.008383016, -0.13854517, -0.19266415
194, 3202108771, -136.66883850097656, 68.7166519165039, 32.94242858886719, -0.021410331, -0.15876427, -0.19958878
195, 3202125438, -136.6420135498047, 68.73029327392578, 32.948020935058594, -0.0018987592, -0.1876208, -0.19315624
196, 3202142105, -136.63661193847656, 68.74687194824219, 32.942535400390625, 0.01428349, -0.1864819, -0.2359314
197, 3202158772, -136.64633178710938, 68.7653579711914, 32.92716979980469, -0.0012582343, -0.1504222, -0.24885464
198, 3202175439, -136.6616973876953, 68.7818603515625, 32.91347885131836, -0.018792437, -0.070142835, -0.19741058
199, 3202192106, -136.66598510742188, 68.79090881347656, 32.883792877197266, 0.033295244, -0.05364847, -0.13820648
200, 3202208773, -136.62754821777344, 68.79432678222656, 32.887813568115234, 0.049776845, -0.18542501, -0.174963
201, 3202225440, -136.5950164794922, 68.78840637207031, 32.84852600097656, -0.03368638, -0.24986222, -0.2576828
202, 3202242107, -136.58045959472656, 68.7863998413086, 32.78728485107422, -0.09304723, -0.27550453, -0.19707489
203, 3202258774, -136.5713348388672, 68.80143737792969, 32.74847412109375, -0.04714704, -0.23925503, -0.20924091
204, 3202275441, -136.58718872070312, 68.822998046875, 32.72046661376953, 0.02571619, -0.21679528, -0.21918201
205, 3202292108, -136.64683532714844, 68.8399429321289, 32.69097137451172, 0.02392091, -0.17741486, -0.20043182
206, 3202308775, -136.71080017089844, 68.854736328125, 32.67717742919922, 0.061507575, -0.13649568, -0.17615032
207, 3202325442, -136.7391357421875, 68.86428833007812, 32.68613052368164, 0.08179877, -0.01481902, -0.21175957
208, 3202342109, -136.72988891601562, 68.86672973632812, 32.70954513549805, 0.08680075, 0.04175032, -0.22084904
209, 3202358776, -136.69300842285156, 68.8670883178711, 32.72460174560547, 0.051626824, 0.029576464, -0.21888065
210, 3202375443, -136.64862060546875, 68.8680419921875, 32.70932388305664, -0.0062259673, -0.096158735, -0.22397709
211, 3202392110, -136.60906982421875, 68.86861419677734, 32.666561126708984, -0.07103851, -0.265638, -0.24203014
212, 3202408777, -136.58428955078125, 68.8751449584961, 32.61299133300781, -0.0968945, -0.3741827, -0.22571087
213, 3202425444, -136.60520935058594, 68.88421630859375, 32.53858947753906, -0.04583062, -0.41520426, -0.22053528
214, 3202442111, -136.6691131591797, 68.89157104492188, 32.462581634521484, -0.016765464, -0.3486212, -0.20249271
215, 3202458778, -136.74679565429688, 68.90792846679688, 32.43243408203125, 0.04076486, -0.2433799, -0.18836021
216, 3202475445, -136.83200073242188, 68.9235610961914, 32.3996467590332, 0.073105454, -0.0982202, -0.21731853
217, 3202492112, -136.921142578125, 68.93077850341797, 32.338523864746094, 0.09368909, -0.008102456, -0.22509193
218, 3202508779, -136.97930908203125, 68.92945861816406, 32.27094268798828, 0.09652483, 0.0061036916, -0.18287086
219, 3202525446, -136.99180603027344, 68.92145538330078, 32.20397186279297, 0.0750486, -0.04368058, -0.15122223
220, 3202542113, -136.97610473632812, 68.9113540649414, 32.14750671386719, -0.011268208, -0.14251058, -0.10108948
221, 3202558780, -136.9490966796875, 68.91276550292969, 32.119239807128906, -0.078685604, -0.20490427, -0.10198879
222, 3202575447, -136.93292236328125, 68.92328643798828, 32.09937286376953, -0.14009434, -0.22258896, -0.13941956
223, 3202592114, -136.91197204589844, 68.93569946289062, 32.079593658447266, -0.13312487, -0.17914139, -0.17067909
224, 3202608781, -136.88783264160156, 68.9541244506836, 32.07646560668945, -0.03705561, -0.12668614, -0.19071102
225, 3202625448, -136.8668670654297, 68.97528839111328, 32.08760070800781, -0.009460694, -0.09686973, -0.21915913
226, 3202642115, -136.84585571289062, 68.99560546875, 32.08954620361328, 0.007261504, -0.066126086, -0.2284708
227, 3202658782, -136.81871032714844, 69.01636505126953, 32.08064270019531, 0.047303982, -0.06527584, -0.23225021
228, 3202675449, -136.7907257080078, 69.03269958496094, 32.068668365478516, 0.05734516, -0.08792362, -0.1988039
229, 3202692116, -136.7849884033203, 69.0397720336914, 32.033294677734375, 0.06325604, -0.1275261, -0.17873383
230, 3202708783, -136.80886840820312, 69.04258728027344, 31.970001220703125, 0.04971453, -0.18450212, -0.15129662
231, 3202725450, -136.861572265625, 69.04178619384766, 31.85835838317871, -0.0062254258, -0.19636641, -0.18212223
232, 3202742117, -136.92892456054688, 69.03604888916016, 31.752283096313477, -0.12776844, -0.19255787, -0.21607971
233, 3202758784, -136.9973602294922, 69.02864837646484, 31.66668701171875, -0.18906689, -0.1365482, -0.22555637
234, 3202775451, -137.05958557128906, 69.01854705810547, 31.583799362182617, -0.15599652, -0.08829074, -0.21530151
235, 3202792118, -137.11891174316406, 69.00708770751953, 31.510581970214844, -0.07355639, -0.04393706, -0.15718651
236, 3202808785, -137.16983032226562, 68.99551391601562, 31.474166870117188, -0.028935567, -0.066427305, -0.09812355
237, 3202825452, -137.20240783691406, 68.9892807006836, 31.469192504882812, 0.005882668, -0.1698419, -0.09562588
238, 3202842119, -137.2154083251953, 68.98450469970703, 31.48650360107422, -0.0026080413, -0.23441312, -0.1158638
239, 3202858786, -137.20375061035156, 68.97377014160156, 31.53842544555664, -0.024021037, -0.19907193, -0.1313963
240, 3202875453, -137.17755126953125, 68.96308135986328, 31.607093811035156, 0.021927137, -0.16368279, -0.16260433
241, 3202892120, -137.14085388183594, 68.95425415039062, 31.664155960083008, 0.09283416, -0.17024098, -0.20261765
242, 3202908787, -137.09483337402344, 68.94790649414062, 31.689943313598633, 0.10855685, -0.21732287, -0.2973423
243, 3202925454, -137.05523681640625, 68.9412612915039, 31.68585968017578, 0.030698143, -0.2763104, -0.30097675
244, 3202942121, -137.01393127441406, 68.9401626586914, 31.70298194885254, -0.00557685, -0.31015384, -0.30280876
245, 3202958788, -136.99465942382812, 68.93888092041016, 31.71790313720703, -0.0050451225, -0.34279478, -0.30245876
246, 3202975455, -137.00498962402344, 68.93675994873047, 31.704933166503906, 0.05481739, -0.34888092, -0.2588253
247, 3202992122, -137.04730224609375, 68.94156646728516, 31.666431427001953, 0.11878437, -0.28974497, -0.22367573
248, 3203008789, -137.08914184570312, 68.9513931274414, 31.640243530273438, 0.14817302, -0.21755657, -0.20060158
249, 3203025456, -137.10301208496094, 68.95928192138672, 31.630422592163086, 0.15378639, -0.16344576, -0.2190733
250, 3203042123, -137.10116577148438, 68.95983123779297, 31.606700897216797, 0.13890615, -0.15908054, -0.24615192
251, 3203058790, -137.1226043701172, 68.95616912841797, 31.53645896911621, 0.051722065, -0.15645628, -0.24241066
252, 3203075457, -137.15708923339844, 68.95380401611328, 31.427305221557617, -0.044509716, -0.17369759, -0.18414402
253, 3203092124, -137.16879272460938, 68.96006774902344, 31.33582878112793, -0.014612918, -0.17855601, -0.20431423
254, 3203108791, -137.17242431640625, 68.96632385253906, 31.279634475708008, -0.046598703, -0.15715955, -0.15773487
255, 3203125458, -137.18601989746094, 68.97764587402344, 31.241371154785156, -0.123552985, -0.11213377, -0.13493633
256, 3203142125, -137.20208740234375, 68.99978637695312, 31.220426559448242, -0.15003777, -0.054065883, -0.1087656
257, 3203158792, -137.20852661132812, 69.02545166015625, 31.202503204345703, -0.13767415, -0.012397258, -0.13916016
258, 3203175459, -137.19149780273438, 69.04351043701172, 31.177349090576172, -0.095006205, 0.054512687, -0.16827011
259, 3203192126, -137.1467742919922, 69.04971313476562, 31.164709091186523, -0.060656693, 0.021785362, -0.10494423
260, 3203208793, -137.0929412841797, 69.05731201171875, 31.169509887695312, -0.024958652, -0.026186218, -0.07636452
261, 3203225460, -137.06655883789062, 69.06177520751953, 31.175376892089844, -0.02524174, -0.1037926, -0.10787487
262, 3203242127, -137.06605529785156, 69.060546875, 31.186241149902344, -0.0542925, -0.10474342, -0.11546421
263, 3203258794, -137.08837890625, 69.05540466308594, 31.19826316833496, -0.080134615, -0.0991775, -0.13572788
264, 3203275461, -137.11741638183594, 69.04782104492188, 31.213748931884766, -0.068967335, -0.1448736, -0.21104622
265, 3203292128, -137.16041564941406, 69.03234100341797, 31.211273193359375, -0.048543204, -0.13090718, -0.27068996
266, 3203308795, -137.1975555419922, 69.00899505615234, 31.212646484375, -0.039135292, -0.083949454, -0.31535625
267, 3203325462, -137.2263641357422, 68.97856903076172, 31.216144561767578, -0.038543403, -0.09610364, -0.26891327
268, 3203342129, -137.2601776123047, 68.9505844116211, 31.207380294799805, -0.018322622, -0.14503354, -0.20740318
269, 3203358796, -137.2998809814453, 68.93014526367188, 31.19291114807129, 0.014601756, -0.24858451, -0.2051878
270, 3203375463, -137.35984802246094, 68.91361236572266, 31.160415649414062, 0.013533606, -0.32992837, -0.17167282
271, 3203392130, -137.42552185058594, 68.90496063232422, 31.12555503845215, -0.032194898, -0.3191775, -0.16269875
272, 3203408797, -137.49420166015625, 68.89879608154297, 31.09879493713379, -0.0012610902, -0.21491878, -0.1825018
273, 3203425464, -137.54481506347656, 68.88727569580078, 31.085338592529297, 0.07520075, -0.095729254, -0.1669035
274, 3203442131, -137.57290649414062, 68.87557983398438, 31.07726287841797, 0.10240834, -0.015618191, -0.17779922
275, 3203458798, -137.572509765625, 68.86561584472656, 31.059520721435547, 0.09578031, -0.055974796, -0.1962471
276, 3203475465, -137.56512451171875, 68.85746765136719, 31.03982162475586, 0.014520313, -0.12234149, -0.2254839
277, 3203492132, -137.57513427734375, 68.84426879882812, 31.00019645690918, -0.08872306, -0.22050324, -0.22083378
278, 3203508799, -137.61907958984375, 68.82242584228516, 30.953672409057617, -0.12257657, -0.25562093, -0.21918297
279, 3203525466, -137.70941162109375, 68.79161834716797, 30.890907287597656, -0.080324896, -0.2491898, -0.18612003
280, 3203542133, -137.84323120117188, 68.75474548339844, 30.81606101989746, -0.07852756, -0.18119882, -0.18201923
281, 3203558800, -138.0011749267578, 68.71806335449219, 30.75689125061035, -0.11599449, -0.08111274, -0.1469307
282, 3203575467, -138.13079833984375, 68.68726348876953, 30.735448837280273, -0.13831697, -0.028002486, -0.14769268
283, 3203592134, -138.1981964111328, 68.65628814697266, 30.778417587280273, -0.14415894, -0.0035687196, -0.14417076
284, 3203608801, -138.2292022705078, 68.6171646118164, 30.84848403930664, -0.09332254, -0.021268887, -0.13951397
285, 3203625468, -138.2347412109375, 68.57376098632812, 30.904823303222656, -0.003795338, -0.077924885, -0.13863182
286, 3203642135, -138.20535278320312, 68.53372192382812, 30.96958351135254, 0.009648219, -0.17853421, -0.14572906
287, 3203658802, -138.16061401367188, 68.4976577758789, 31.032182693481445, -0.009740444, -0.27257696, -0.22530746
288, 3203675469, -138.15826416015625, 68.46232604980469, 31.05144691467285, -0.038588654, -0.38013166, -0.24242592
289, 3203692136, -138.22265625, 68.43112182617188, 31.01557159423828, -0.032557458, -0.44369462, -0.2603464
290, 3203708803, -138.31838989257812, 68.4001693725586, 30.995819091796875, -0.051929504, -0.34426135, -0.24625015
291, 3203725470, -138.4100341796875, 68.36972045898438, 30.99714469909668, 0.038465545, -0.20460744, -0.18795776
292, 3203742137, -138.4877166748047, 68.34529876708984, 30.988862991333008, 0.067156315, -0.11033281, -0.13603592
293, 3203758804, -138.53770446777344, 68.33037567138672, 31.00139617919922, 0.03959554, -0.045933478, -0.14226246
294, 3203775471, -138.55648803710938, 68.31900787353516, 31.0210018157959, 0.034345154, -0.04320986, -0.16184425
295, 3203792138, -138.55126953125, 68.30457305908203, 31.027122497558594, 0.0808946, -0.016464971, -0.14997101
296, 3203808805, -138.5140380859375, 68.2868423461914, 31.037811279296875, 0.06416013, -0.06634177, -0.16270542
297, 3203825472, -138.44732666015625, 68.26815795898438, 31.06167221069336, 0.044797603, -0.11504346, -0.19011497
298, 3203842139, -138.38816833496094, 68.24919891357422, 31.079822540283203, 0.0067159925, -0.16034015, -0.22568035
299, 3203858806, -138.3352813720703, 68.2387466430664, 31.126230239868164, -0.05272607, -0.25546917, -0.2229433
300, 3203875473, -138.3173065185547, 68.23300170898438, 31.16391372680664, -0.071565405, -0.2750926, -0.2711668
301, 3203892140, -138.34303283691406, 68.22281646728516, 31.17163848876953, -0.0462854, -0.24338709, -0.29464245
302, 3203908807, -138.382568359375, 68.20408630371094, 31.16050910949707, 0.02569546, -0.19380495, -0.24891758
303, 3203925474, -138.42347717285156, 68.18611907958984, 31.137928009033203, 0.10726949, -0.1622951, -0.22246456
304, 3203942141, -138.4634552001953, 68.17105102539062, 31.117687225341797, 0.059611283, -0.19663844, -0.22429943
305, 3203958808, -138.5082244873047, 68.15294647216797, 31.078027725219727, 0.011273932, -0.15156625, -0.18932533
306, 3203975475, -138.522705078125, 68.13516235351562, 31.052997589111328, -0.018421749, -0.13943264, -0.14487839
307, 3203992142, -138.49639892578125, 68.11994934082031, 31.0662784576416, 0.026362492, -0.13767582, -0.10509682
308, 3204008809, -138.4576416015625, 68.10897064208984, 31.09002685546875, -0.023656853, -0.1390711, -0.102300644
309, 3204025476, -138.41482543945312, 68.10391998291016, 31.109989166259766, 0.0046870196, -0.17880936, -0.13645744
310, 3204042143, -138.38107299804688, 68.1025161743164, 31.106101989746094, 0.0149943, -0.23891467, -0.18888092
311, 3204058810, -138.35792541503906, 68.09974670410156, 31.087596893310547, 0.06964002, -0.2025281, -0.26298332
312, 3204075477, -138.341064453125, 68.09435272216797, 31.07688331604004, 0.02361776, -0.113708414, -0.30183697
313, 3204092144, -138.32308959960938, 68.08790588378906, 31.063045501708984, 0.0067850747, -0.07850513, -0.29445457
314, 3204108811, -138.3081817626953, 68.08271789550781, 31.044918060302734, -0.008636403, -0.09443255, -0.3049841
315, 3204125478, -138.30621337890625, 68.076904296875, 31.01673698425293, 0.0030511227, -0.13847007, -0.26877975
316, 3204142145, -138.30520629882812, 68.07100677490234, 30.988197326660156, -0.0407306, -0.20900774, -0.21318722
317, 3204158812, -138.29420471191406, 68.07373809814453, 30.978559494018555, -0.051669963, -0.24164669, -0.17613411
318, 3204175479, -138.29193115234375, 68.08050537109375, 30.973255157470703, -0.03173326, -0.28650638, -0.16928196
319, 3204192146, -138.3260040283203, 68.08570861816406, 30.94091033935547, 0.039747775, -0.22649932, -0.16003609
320, 3204208813, -138.3712921142578, 68.09071350097656, 30.896337509155273, 0.095700935, -0.15349394, -0.08568287
321, 3204225480, -138.3953094482422, 68.09890747070312, 30.839963912963867, 0.030656325, -0.0637374, -0.117715836
322, 3204242147, -138.39596557617188, 68.11431121826172, 30.786462783813477, -0.082907245, 0.08438575, -0.25632
323, 3204258814, -138.32815551757812, 68.14016723632812, 30.80206298828125, -0.11487643, 0.07970371, -0.309412
324, 3204275481, -138.2291717529297, 68.15077209472656, 30.859745025634766, 0.116717555, -0.11187829, -0.27130604
325, 3204292148, -138.18460083007812, 68.15534210205078, 30.851459503173828, 0.18850216, -0.21492526, -0.26662827
326, 3204308815, -138.20655822753906, 68.16179656982422, 30.796356201171875, 0.110061325, -0.28843555, -0.28045082
327, 3204325482, -138.2431640625, 68.17920684814453, 30.76279067993164, -0.02425885, -0.32304373, -0.17749977
328, 3204342149, -138.28237915039062, 68.19989013671875, 30.744028091430664, -0.036893573, -0.23882326, -0.13554096
329, 3204358816, -138.3404083251953, 68.2164306640625, 30.693758010864258, -0.002035505, -0.11247966, -0.20746994
330, 3204375483, -138.36575317382812, 68.2283706665039, 30.662887573242188, -0.0041108537, -0.0454394, -0.13516045
331, 3204392150, -138.34158325195312, 68.24485778808594, 30.665678024291992, 0.020418374, -0.059475232, -0.09271908
332, 3204408817, -138.30184936523438, 68.2686767578125, 30.653602600097656, 0.028931983, -0.098910965, -0.15314198
333, 3204425484, -138.25128173828125, 68.29006958007812, 30.609670639038086, 0.04728179, -0.17060201, -0.2318821
334, 3204442151, -138.20245361328125, 68.3062515258789, 30.56710433959961, -0.0021674759, -0.19211073, -0.22881508
335, 3204458818, -138.16445922851562, 68.32042694091797, 30.534866333007812, -0.060578912, -0.21181574, -0.18250275
336, 3204475485, -138.1339569091797, 68.33403015136719, 30.53032112121582, -0.16156548, -0.25238144, -0.089458466
337, 3204492152, -138.09539794921875, 68.34668731689453, 30.559797286987305, -0.18091457, -0.27116582, -0.049575806
338, 3204508819, -138.05311584472656, 68.35714721679688, 30.60586929321289, -0.11891783, -0.2644763, -0.08316231
339, 3204525486, -138.00755310058594, 68.3711166381836, 30.659561157226562, -0.066687986, -0.17890088, -0.16161919
340, 3204542153, -137.95010375976562, 68.38838958740234, 30.713157653808594, 0.013374076, -0.09051224, -0.23341942
341, 3204558820, -137.89175415039062, 68.40372467041016, 30.737098693847656, 0.07000374, -0.0070133894, -0.26613617
342, 3204575487, -137.8420867919922, 68.41815948486328, 30.717683792114258, 0.11769692, -0.013949555, -0.2881031
343, 3204592154, -137.7959442138672, 68.42667388916016, 30.6649227142334, 0.0752433, -0.1228558, -0.32927418
344, 3204608821, -137.7603302001953, 68.4287109375, 30.6256160736084, -0.02568278, -0.24685766, -0.29313946
345, 3204625488, -137.74856567382812, 68.43601989746094, 30.59914207458496, -0.08501715, -0.26466516, -0.27580738
346, 3204642155, -137.7746124267578, 68.44578552246094, 30.571455001831055, -0.07114633, -0.23868982, -0.2608776
347, 3204658822, -137.81576538085938, 68.45768737792969, 30.561738967895508, 0.0024543575, -0.1729114, -0.20154476
348, 3204675489, -137.85122680664062, 68.47274017333984, 30.536062240600586, 0.07631586, -0.07749775, -0.13484573
349, 3204692156, -137.869873046875, 68.4841079711914, 30.49917221069336, 0.077755585, -0.021743376, -0.11335182
350, 3204708823, -137.86671447753906, 68.49501037597656, 30.456254959106445, -0.022992218, -0.05258902, -0.16437817
351, 3204725490, -137.8457794189453, 68.50944519042969, 30.43541145324707, -0.046628073, -0.13808529, -0.15894794
352, 3204742157, -137.8303985595703, 68.52726745605469, 30.39807891845703, -0.03130773, -0.19504131, -0.19552422
353, 3204758824, -137.8233184814453, 68.54541778564453, 30.349409103393555, -0.04471972, -0.21034838, -0.20560837
354, 3204775491, -137.82122802734375, 68.56766510009766, 30.301837921142578, -0.050654024, -0.23176003, -0.20762348
355, 3204792158, -137.82284545898438, 68.5887451171875, 30.26858901977539, -0.02857533, -0.2005936, -0.22373772
356, 3204808825, -137.83016967773438, 68.60558319091797, 30.249845504760742, 0.038339462, -0.12365743, -0.17167377
357, 3204825492, -137.84506225585938, 68.62320709228516, 30.22264862060547, 0.016243381, -0.09983262, -0.16396332
358, 3204842159, -137.84378051757812, 68.64350128173828, 30.1908016204834, 0.012464046, -0.031819973, -0.16347027
359, 3204858826, -137.83164978027344, 68.66609954833984, 30.165346145629883, 0.011721749, -0.0010690625, -0.14559555
360, 3204875493, -137.78436279296875, 68.6947021484375, 30.15554428100586, 0.019732976, -0.076664165, -0.16042519
361, 3204892160, -137.71998596191406, 68.72337341308594, 30.173389434814453, -0.02826979, -0.14340457, -0.2385664
362, 3204908827, -137.67449951171875, 68.74812316894531, 30.166057586669922, -0.07177474, -0.2070947, -0.28025055
363, 3204925494, -137.67381286621094, 68.76509857177734, 30.126527786254883, -0.044346236, -0.19974414, -0.282547
364, 3204942161, -137.70277404785156, 68.77926635742188, 30.09487533569336, -0.046109904, -0.22038423, -0.25343895
365, 3204958828, -137.74684143066406, 68.78699493408203, 30.055734634399414, -0.008040763, -0.18037239, -0.15095997
366, 3204975495, -137.8108367919922, 68.79273986816406, 30.00469970703125, -0.014369516, -0.15490742, -0.1039629
367, 3204992162, -137.87210083007812, 68.80545806884766, 29.96541976928711, -0.0540904, -0.10009223, -0.061917305
368, 3205008829, -137.89512634277344, 68.82621765136719, 29.95865821838379, -0.09100649, -0.033313934, -0.077168465
369, 3205025496, -137.86456298828125, 68.85176849365234, 29.986900329589844, -0.14448644, 0.029049197, -0.09488678
370, 3205042163, -137.77792358398438, 68.88069152832031, 30.036577224731445, -0.11644406, -0.0054966304, -0.16956425
371, 3205058830, -137.66595458984375, 68.90803527832031, 30.090194702148438, -0.08391006, -0.09083634, -0.18392181
372, 3205075497, -137.56747436523438, 68.93644714355469, 30.128501892089844, -0.057062663, -0.21110788, -0.1975832
373, 3205092164, -137.5030975341797, 68.96720123291016, 30.13144874572754, -0.061296124, -0.26610872, -0.19745255
374, 3205108831, -137.47061157226562, 68.99907684326172, 30.115697860717773, -0.060273703, -0.26465073, -0.25897217
375, 3205125498, -137.45803833007812, 69.02281951904297, 30.10196876525879, -0.003947911, -0.21197075, -0.2901287
376, 3205142165, -137.46690368652344, 69.0353775024414, 30.090553283691406, 0.019126676, -0.12828627, -0.20175934
377, 3205158832, -137.48605346679688, 69.04835510253906, 30.070676803588867, 0.0012352042, -0.09375754, -0.14754105
378, 3205175499, -137.4971160888672, 69.06768035888672, 30.048236846923828, -0.02873579, -0.09577854, -0.18991375
379, 3205192166, -137.4888458251953, 69.09020233154297, 30.002880096435547, -0.07310772, -0.09117664, -0.18972015
380, 3205208833, -137.45770263671875, 69.11298370361328, 29.955379486083984, -0.047134094, -0.11635179, -0.13080692
381, 3205225500, -137.40560913085938, 69.13851165771484, 29.933574676513672, -0.012959133, -0.16154735, -0.12668228
382, 3205242167, -137.36367797851562, 69.17020416259766, 29.911396026611328, -0.02344706, -0.20623554, -0.091563225
383, 3205258834, -137.33004760742188, 69.20486450195312, 29.876508712768555, -0.10065018, -0.1722003, -0.10404301
384, 3205275501, -137.2592315673828, 69.2410659790039, 29.865989685058594, -0.11568268, -0.11187829, -0.112457275
385, 3205292168, -137.13430786132812, 69.274169921875, 29.888669967651367, -0.11154132, -0.10593486, 0.040305138
386, 3205308835, -136.9662628173828, 69.30599975585938, 29.91613006591797, -0.12805305, -0.11392087, 0.1367693
387, 3205325502, -136.76046752929688, 69.34309387207031, 29.954002380371094, -0.13022745, -0.08667654, 0.1670351
388, 3205342169, -136.50596618652344, 69.37313079833984, 30.00754165649414, -0.122964956, -0.08468526, 0.17816448
389, 3205358836, -136.22776794433594, 69.3952865600586, 30.0494384765625, -0.18627842, -0.030726215, 0.053814888
390, 3205375503, -135.95947265625, 69.42212677001953, 30.076854705810547, -0.24658737, 0.007672641, -0.16244316
391, 3205392170, -135.70382690429688, 69.47014617919922, 30.072914123535156, -0.28895617, 0.029824115, -0.34646034
392, 3205408837, -135.46160888671875, 69.52274322509766, 30.041032791137695, -0.20140915, -0.054524757, -0.50404644
393, 3205425504, -135.27601623535156, 69.57669067382812, 29.972373962402344, 0.01279954, -0.020849178, -0.5215483
394, 3205442171, -135.12351989746094, 69.62822723388672, 29.908910751342773, 0.06356548, -0.01676593, -0.48293114
395, 3205458838, -134.9927978515625, 69.67371368408203, 29.881534576416016, -0.023917971, -0.07614058, -0.3450632
396, 3205475505, -134.8954620361328, 69.71808624267578, 29.872509002685547, -0.03582016, -0.054286603, -0.22315216
397, 3205492172, -134.86264038085938, 69.76802062988281, 29.828481674194336, -0.049023345, -0.00642745, -0.11589241
398, 3205508839, -134.85760498046875, 69.83187866210938, 29.77630615234375, -0.11859716, 0.039847955, -0.046215057
399, 3205525506, -134.8210906982422, 69.89537048339844, 29.76155662536621, -0.2147299, 0.071185075, 0.021183968
400, 3205542173, -134.73219299316406, 69.96541595458984, 29.80674171447754, -0.2059859, 0.052707486, -0.009501457
401, 3205558840, -134.60699462890625, 70.03669738769531, 29.890399932861328, -0.13261504, -0.015067679, -0.076740265
402, 3205575507, -134.46229553222656, 70.10447692871094, 29.981698989868164, -0.075576685, -0.037227087, -0.13988972
403, 3205592174, -134.31065368652344, 70.16641998291016, 30.056108474731445, -0.07591197, -0.0049581877, -0.25267887
404, 3205608841, -134.1725311279297, 70.22468566894531, 30.099376678466797, -0.050230213, -0.031509403, -0.3261099
405, 3205625508, -134.05996704101562, 70.2737045288086, 30.099336624145508, -0.010759173, -0.10269951, -0.40891933
406, 3205642175, -133.99166870117188, 70.30474853515625, 30.069347381591797, -0.011924905, -0.19526841, -0.37985516
407, 3205658842, -133.97457885742188, 70.33186340332031, 30.03278350830078, -0.0103210425, -0.3258754, -0.3368883
408, 3205675509, -134.0162353515625, 70.36174774169922, 29.997760772705078, 0.025872923, -0.38373655, -0.3619337
409, 3205692176, -134.11346435546875, 70.38712310791016, 29.95575523376465, 0.057610676, -0.36450416, -0.40057945
410, 3205708843, -134.27093505859375, 70.40377044677734, 29.882678985595703, 0.106176086, -0.24013282, -0.41868687
411, 3205725510, -134.47726440429688, 70.40774536132812, 29.771221160888672, 0.17015105, -0.09760978, -0.46664906
412, 3205742177, -134.69952392578125, 70.39730072021484, 29.630146026611328, 0.20470975, -0.012335792, -0.44547844
413, 3205758844, -134.93331909179688, 70.38125610351562, 29.458995819091797, 0.24038203, -0.0358127, -0.43959713
414, 3205775511, -135.19712829589844, 70.35910034179688, 29.241939544677734, 0.12925741, -0.16797611, -0.49061298
415, 3205792178, -135.4813690185547, 70.32488250732422, 29.018714904785156, -0.008645226, -0.27735332, -0.44823933
416, 3205808845, -135.7981719970703, 70.27958679199219, 28.78966522216797, -0.10473173, -0.32837796, -0.46103668
417, 3205825512, -136.16607666015625, 70.23490142822266, 28.509078979492188, -0.054206267, -0.3461506, -0.5058937
418, 3205842179, -136.57313537597656, 70.1996841430664, 28.17845344543457, -0.15320939, -0.34459898, -0.47560978
419, 3205858846, -137.00062561035156, 70.17101287841797, 27.800718307495117, -0.28855276, -0.3030735, -0.2884798
420, 3205875513, -137.43238830566406, 70.15496063232422, 27.364051818847656, -0.42705232, -0.14125583, -0.053056717
421, 3205892180, -137.7820587158203, 70.1793441772461, 26.916284561157227, -0.60279953, -0.07056751, 0.020467758
422, 3205908847, -138.01571655273438, 70.22048950195312, 26.560773849487305, -0.32601792, -0.13189879, -0.048981667
423, 3205925514, -138.256591796875, 70.24718475341797, 26.208377838134766, -0.0063740867, -0.22597708, 0.06404781
424, 3205942181, -138.49240112304688, 70.28334045410156, 25.9105224609375, -0.09053391, -0.1208254, 0.13666058
425, 3205958848, -138.73155212402344, 70.33258819580078, 25.633703231811523, -0.15912928, -0.055256203, 0.1465931
426, 3205975515, -138.8872528076172, 70.40808868408203, 25.392541885375977, -0.07436927, 0.04469756, 0.037332535
427, 3205992182, -139.053466796875, 70.47101593017578, 25.108211517333984, 0.12076034, 0.020560175, -0.05983448
428, 3206008849, -139.26376342773438, 70.51708984375, 24.764400482177734, 0.20698497, -0.18993394, 0.05518818
429, 3206025516, -139.45033264160156, 70.57249450683594, 24.44876480102539, 0.09092042, -0.2803106, -0.053743362
430, 3206042183, -139.63665771484375, 70.62450408935547, 24.156213760375977, 0.02190772, -0.2872698, -0.15177536
431, 3206058850, -139.83346557617188, 70.66851806640625, 23.876672744750977, -0.006397311, -0.28523234, -0.086771965
432, 3206075517, -140.01206970214844, 70.70777893066406, 23.64224624633789, -0.109387204, -0.17672533, 0.033631325
433, 3206092184, -140.15684509277344, 70.75791931152344, 23.447120666503906, -0.10746709, 0.021336323, -0.04114437
434, 3206108851, -140.2151641845703, 70.81461334228516, 23.300647735595703, -0.14199029, 0.11572797, -0.09069729
435, 3206125518, -140.17369079589844, 70.86515045166016, 23.2099552154541, -0.18661045, 0.06811769, 0.030287743
436, 3206142185, -140.05267333984375, 70.9054183959961, 23.165836334228516, -0.22127005, -0.03152505, 0.22857857
437, 3206158852, -139.8845977783203, 70.9520492553711, 23.16501808166504, -0.26565617, -0.17978331, 0.32087135
438, 3206175519, -139.6820526123047, 71.0205078125, 23.208105087280273, -0.2632962, -0.2241227, 0.22332287
439, 3206192186, -139.47633361816406, 71.10743713378906, 23.299365997314453, -0.17701072, -0.23810466, 0.17797184
440, 3206208853, -139.2709503173828, 71.21116638183594, 23.43583106994629, -0.020201813, -0.1869421, 0.009425163
441, 3206225520, -139.04701232910156, 71.31695556640625, 23.633869171142578, -0.0130155645, -0.058214955, -0.17102146
442, 3206242187, -138.7998046875, 71.39653015136719, 23.895139694213867, -0.03542278, -0.009429565, -0.20251083
443, 3206258854, -138.5497589111328, 71.45265197753906, 24.17487907409668, -0.06225007, -0.023125991, -0.2136097
444, 3206275521, -138.3113250732422, 71.4912109375, 24.435806274414062, -0.0924242, -0.09902138, -0.27567673
445, 3206292188, -138.052734375, 71.51846313476562, 24.71330451965332, -0.10814788, -0.19769576, -0.23818493
446, 3206308855, -137.75733947753906, 71.54203796386719, 25.038545608520508, -0.08318561, -0.2895245, -0.18946266
447, 3206325522, -137.4116668701172, 71.56198120117188, 25.41716194152832, -0.03658561, -0.37479287, -0.18722343
448, 3206342189, -137.03639221191406, 71.57147979736328, 25.82846450805664, -0.006283976, -0.39251223, -0.17681503
449, 3206358856, -136.64198303222656, 71.56411743164062, 26.26318359375, 0.079542555, -0.4511457, -0.11259937
450, 3206375523, -136.20645141601562, 71.55402374267578, 26.76209831237793, 0.17171721, -0.42807245, -0.13532257
451, 3206392190, -135.7681884765625, 71.55128479003906, 27.299039840698242, 0.2880904, -0.34304678, -0.19651222
452, 3206408857, -135.3368377685547, 71.55104064941406, 27.83086585998535, 0.36329117, -0.3345542, -0.2526846
453, 3206425524, -134.8822021484375, 71.5498275756836, 28.37250328063965, 0.33171368, -0.4125849, -0.2712965
454, 3206442191, -134.38417053222656, 71.54302978515625, 28.94905662536621, 0.21700035, -0.49191648, -0.25031853
455, 3206458858, -133.831787109375, 71.5221939086914, 29.577421188354492, 0.09353024, -0.50422364, -0.28536987
456, 3206475525, -133.2130584716797, 71.48588562011719, 30.260927200317383, 0.13062276, -0.441789, -0.3601017
457, 3206492192, -132.5187530517578, 71.42437744140625, 31.01364517211914, 0.25638103, -0.33453867, -0.37240505
458, 3206508859, -131.79026794433594, 71.33063507080078, 31.76411247253418, 0.38515934, -0.25827873, -0.32373047
459, 3206525526, -131.0716094970703, 71.22740936279297, 32.4259033203125, 0.38312948, -0.13639095, -0.42078018
460, 3206542193, -130.3502960205078, 71.12230682373047, 33.01762008666992, 0.21466252, -0.09662901, -0.5228491
461, 3206558860, -129.6060028076172, 71.01827239990234, 33.59176254272461, 0.062021066, -0.1357336, -0.4940138
462, 3206575527, -128.78761291503906, 70.91223907470703, 34.214012145996094, -0.10522411, -0.21260586, -0.37969398
463, 3206592194, -127.94792938232422, 70.7944107055664, 34.85959243774414, -0.28356186, -0.30216256, -0.24548626
464, 3206608861, -127.14293670654297, 70.67138671875, 35.514041900634766, -0.33786142, -0.31853044, -0.22376919
465, 3206625528, -126.35372161865234, 70.55298614501953, 36.22682189941406, -0.35039848, -0.30882585, -0.21578884
466, 3206642195, -125.5605697631836, 70.44277954101562, 36.996280670166016, -0.30885848, -0.2843868, -0.15209675
467, 3206658862, -124.73743438720703, 70.34809875488281, 37.816768646240234, -0.31895068, -0.20035824, -0.118411064
468, 3206675529, -123.98808288574219, 70.23175048828125, 38.57218933105469, -0.54864585, 0.059003733, -0.054392815
469, 3206692196, -123.26114654541016, 70.12640380859375, 39.303565979003906, -0.66022074, 0.2588155, -0.010725975
470, 3206708863, -122.32803344726562, 70.08655548095703, 40.219383239746094, -0.7763118, 0.16358119, -0.083581924
471, 3206725530, -121.1910400390625, 70.0787582397461, 41.327091217041016, -0.80614275, -0.25884196, 0.08866215
472, 3206742197, -120.06087493896484, 70.1078872680664, 42.41791915893555, -0.5728582, -0.617115, 0.09131718
473, 3206758864, -118.91556549072266, 70.2166976928711, 43.57536697387695, -0.41612956, -0.86551213, -0.033082962
474, 3206775531, -117.71086883544922, 70.37407684326172, 44.89345932006836, -0.2911018, -1.0741341, -0.19164848
475, 3206792198, -116.4800796508789, 70.52678680419922, 46.306331634521484, -0.107934125, -0.9176594, -0.25813007
476, 3206808865, -115.16569519042969, 70.68455505371094, 47.81665802001953, -0.027075814, -0.4532571, -0.29786777
477, 3206825532, -113.6839370727539, 70.86095428466797, 49.4537239074707, -0.070082866, -0.17333038, -0.43215084
478, 3206842199, -112.1026840209961, 71.04560852050781, 51.138397216796875, -0.105780095, -0.16268145, -0.5508261
479, 3206858866, -110.41167449951172, 71.22970581054688, 52.88608169555664, -0.14310242, -0.21917829, -0.45234966
480, 3206875533, -108.57891845703125, 71.39785766601562, 54.74901580810547, -0.2096055, -0.32385352, -0.32050896
481, 3206892200, -106.71532440185547, 71.53262329101562, 56.64070129394531, -0.08187479, -0.38878995, -0.26519108
482, 3206908867, -104.8835220336914, 71.65094757080078, 58.484657287597656, 0.2342457, -0.34145638, -0.2940359
483, 3206925534, -103.14540100097656, 71.77396392822266, 60.198883056640625, 0.45893025, -0.15980037, -0.38610554
484, 3206942201, -101.58232879638672, 71.90165710449219, 61.6468620300293, 0.61078966, 0.08389156, -0.32807732
485, 3206958868, -100.2510757446289, 72.02691650390625, 62.73100662231445, 0.77914536, 0.28540134, -0.08173847
486, 3206975535, -99.20085906982422, 72.14834594726562, 63.38880157470703, 0.9604128, 0.26688698, 0.06646824
487, 3206992202, -98.49330139160156, 72.27252960205078, 63.594669342041016, 1.1545973, 0.096468754, -0.1363306
488, 3207008869, -98.15274047851562, 72.3862533569336, 63.3801383972168, 1.2460986, -0.06220388, -0.37899208
489, 3207025536, -98.1446762084961, 72.47157287597656, 62.797462463378906, 1.115208, -0.1220231, -0.49873543
490, 3207042203, -98.39543151855469, 72.52703857421875, 61.99187088012695, 0.84789264, -0.070485145, -0.51408005
491, 3207058870, -98.7386245727539, 72.5396728515625, 61.158607482910156, 0.48877797, 0.016292417, -0.551054
492, 3207075537, -99.18660736083984, 72.51119995117188, 60.33490753173828, 0.16596052, 0.037104826, -0.6101179
493, 3207092204, -99.84415435791016, 72.42674255371094, 59.38612365722656, 0.116287395, 0.049843613, -0.56090546
494, 3207108871, -100.70194244384766, 72.28547668457031, 58.30174255371094, 0.08233322, 0.093244575, -0.4081087
495, 3207125538, -101.66513061523438, 72.09882354736328, 57.14882278442383, -0.053870514, 0.022269825, -0.08735275
496, 3207142205, -102.65096282958984, 71.87461853027344, 55.97433853149414, -0.24800049, -0.07247274, 0.073373795
497, 3207158872, -103.65654754638672, 71.63745880126953, 54.77422332763672, -0.4822388, -0.12023891, 0.26578236
498, 3207175539, -104.69084930419922, 71.41339874267578, 53.56607437133789, -0.5205839, -0.31918353, 0.31505585
499, 3207192206, -105.67958068847656, 71.20327758789062, 52.53805160522461, -0.52720237, -0.5200309, 0.48531055
500, 3207208873, -106.55132293701172, 70.98633575439453, 51.82440948486328, -0.5682643, -0.6660049, 0.6699009
501, 3207225540, -107.0751724243164, 70.82194519042969, 51.56901931762695, -0.6761473, -0.8981269, 0.7937641
502, 3207242207, -107.3475570678711, 70.7027359008789, 51.69974136352539, -0.87137866, -1.0538312, 0.74932384
503, 3207258874, -107.4939193725586, 70.64254760742188, 52.16018295288086, -0.62797177, -0.94327676, 0.5411167
504, 3207275541, -107.53327941894531, 70.60457611083984, 52.69442367553711, -0.0050101965, -0.57848436, 0.07321167
505, 3207292208, -107.46278381347656, 70.5595703125, 52.99940490722656, 0.7510997, -0.040538434, -0.4006462
506, 3207308875, -107.42931365966797, 70.50482177734375, 52.9047966003418, 1.5141281, 0.32065907, -0.5862274
507, 3207325542, -107.54783630371094, 70.45326232910156, 52.327396392822266, 1.7070975, 0.31431565, -0.7662535
508, 3207342209, -107.8307876586914, 70.40422821044922, 51.408973693847656, 1.438866, 0.049504545, -0.90910244
509, 3207358876, -108.25697326660156, 70.34307098388672, 50.262752532958984, 1.0058593, -0.13379295, -1.1984787
510, 3207375543, -109.01895141601562, 70.24433135986328, 48.78219223022461, 0.49695322, -0.41607106, -1.4189196
511, 3207392210, -110.04811096191406, 70.11357116699219, 47.154083251953125, -0.07942141, -0.540974, -1.0664835
512, 3207408877, -111.1990966796875, 69.97504425048828, 45.689048767089844, -0.6658032, -0.5132018, -0.66046524
513, 3207425544, -112.46896362304688, 69.8425521850586, 44.40309143066406, -0.8751791, -0.4504081, -0.5263319
514, 3207442211, -113.90931701660156, 69.73335266113281, 43.13153839111328, -0.7059713, -0.30461776, -0.6460457
515, 3207458878, -115.55615997314453, 69.63357543945312, 41.70317459106445, -0.66114926, -0.031846013, -0.5815363
516, 3207475545, -117.17739868164062, 69.53656005859375, 40.26953125, -1.0969864, 0.44996232, 0.028774261
517, 3207492212, -118.67236328125, 69.46235656738281, 38.936424255371094, -1.5101563, 0.6466914, 0.67732525
518, 3207508879, -120.0528564453125, 69.4108657836914, 37.63075637817383, -1.3347975, 0.824945, 0.7863331
519, 3207525546, -121.30400085449219, 69.37828063964844, 36.29392623901367, -0.83904684, 0.6993538, 0.6459694
520, 3207542213, -122.36249542236328, 69.3608627319336, 34.93202590942383, -0.56965095, 0.32389966, 0.55697346
521, 3207558880, -123.12298583984375, 69.41121673583984, 33.81479263305664, -0.836493, 0.0021609233, 0.8004093
522, 3207575547, -123.59564971923828, 69.53187561035156, 33.0533332824707, -0.73209727, -0.09235153, 0.6659765
523, 3207592214, -123.88446807861328, 69.6601791381836, 32.556331634521484, -0.109130576, -0.13840437, 0.12745667
524, 3207608881, -124.18814086914062, 69.76839447021484, 32.1165657043457, 0.32694992, -0.11108448, -0.12743378
525, 3207625548, -124.42088317871094, 69.8803939819336, 31.816789627075195, 0.08350972, 0.068759516, 0.114803314
526, 3207642215, -124.39763641357422, 69.97997283935547, 31.792034149169922, -0.09883586, 0.43819258, 0.41281796
527, 3207658882, -124.12316131591797, 69.99482727050781, 32.00285339355469, 0.05170563, 0.24281833, 0.81325245
528, 3207675549, -124.00069427490234, 69.97769165039062, 32.22871780395508, 0.39258376, -0.28349888, 0.72844505
529, 3207692216, -124.28923034667969, 70.01560974121094, 32.28567123413086, 0.55929285, -0.68294495, 0.7068796
530, 3207708883, -124.73846435546875, 70.04612731933594, 32.24418640136719, 0.65760785, -0.30514044, 0.50176525
531, 3207725550, -125.26087951660156, 70.00508880615234, 32.047611236572266, 0.5231116, 0.24891521, 0.29891396
532, 3207742217, -125.93296813964844, 69.93522644042969, 31.62400245666504, 0.1701092, 0.19146857, -0.16735077
533, 3207758884, -126.76164245605469, 69.91337585449219, 31.06736946105957, -0.27250665, -0.5091158, -0.65207195
534, 3207775551, -127.69293975830078, 69.92076110839844, 30.505407333374023, -0.7132448, -1.0760958, -1.0354738
535, 3207792218, -128.88821411132812, 69.94248962402344, 29.862926483154297, -0.6098102, -1.1715945, -1.0363808
536, 3207808885, -130.26808166503906, 69.99401092529297, 29.098569869995117, -0.15080589, -0.61477005, -1.1624289
537, 3207825552, -131.71922302246094, 70.08256530761719, 28.144115447998047, 0.40428603, 0.064249136, -1.497776
538, 3207842219, -133.11257934570312, 70.14744567871094, 26.897613525390625, 0.68452793, 0.56439847, -1.8067417
539, 3207858886, -134.47500610351562, 70.1543197631836, 25.306743621826172, 0.53405726, 0.63873297, -1.873177
540, 3207875553, -135.8658905029297, 70.12322998046875, 23.458595275878906, -0.022948327, 0.38640773, -1.6159668
541, 3207892220, -137.262451171875, 70.06177520751953, 21.517301559448242, -0.5066193, 0.059936117, -1.297679
542, 3207908887, -138.50665283203125, 69.9767074584961, 19.63252067565918, -0.7907084, -0.21552248, -0.8738928
543, 3207925554, -139.61138916015625, 69.89686584472656, 17.75959587097168, -0.80570066, -0.21049589, -0.33266926
544, 3207942221, -140.65296936035156, 69.8524398803711, 15.842996597290039, -0.72326654, 0.043867484, 0.12913132
545, 3207958888, -141.63108825683594, 69.86767578125, 14.001822471618652, -0.8797494, 0.4251934, 0.5941639
546, 3207975555, -142.47572326660156, 69.93750762939453, 12.320419311523438, -0.8335731, 0.63494635, 0.83059216
547, 3207992222, -143.24208068847656, 70.00243377685547, 10.765778541564941, -0.57345283, 0.6209713, 0.6582346
548, 3208008889, -144.01441955566406, 70.00503540039062, 9.383742332458496, -0.19612415, 0.4190051, 0.48558044
549, 3208025556, -144.7116241455078, 69.98145294189453, 8.337075233459473, -0.081349276, 0.2749254, 0.2944746
550, 3208042223, -145.2980499267578, 69.95048522949219, 7.696065902709961, -0.057251867, 0.3356492, -0.044115067
551, 3208058890, -145.75340270996094, 69.8899917602539, 7.403886795043945, 0.17442925, 0.36845508, -0.27142143
552, 3208075557, -146.05532836914062, 69.82209777832031, 7.420194625854492, 0.08034377, 0.11308079, -0.39351177
553, 3208092224, -146.28819274902344, 69.75575256347656, 7.666425704956055, -0.13584706, -0.1979462, -0.47688198
554, 3208108891, -146.46852111816406, 69.68699645996094, 8.104393005371094, -0.13753225, -0.41256413, -0.49480247
555, 3208125558, -146.61634826660156, 69.63317108154297, 8.649392127990723, -0.05267808, -0.49380785, -0.5343027
556, 3208142225, -146.6807098388672, 69.60042572021484, 9.281514167785645, -0.06956683, -0.37560347, -0.5785036
557, 3208158892, -146.66073608398438, 69.56844329833984, 9.936103820800781, 0.026425252, -0.095819, -0.67502785
558, 3208175559, -146.59947204589844, 69.52579498291016, 10.520824432373047, 0.13811073, -0.04509709, -0.71853733
559, 3208192226, -146.4711456298828, 69.47574615478516, 11.033797264099121, 0.20087959, -0.13434482, -0.66899586
560, 3208208893, -146.2288360595703, 69.43346405029297, 11.51962947845459, 0.19785517, -0.3304957, -0.5729513
561, 3208225560, -145.9778289794922, 69.41350555419922, 11.948208808898926, 0.2197424, -0.48758233, -0.47206306
562, 3208242227, -145.69688415527344, 69.4164047241211, 12.320478439331055, 0.29089642, -0.54157794, -0.37400436
563, 3208258894, -145.37400817871094, 69.42308044433594, 12.631728172302246, 0.32529193, -0.50388414, -0.3155508
564, 3208275561, -145.09715270996094, 69.41912078857422, 12.803374290466309, 0.3338162, -0.47348872, -0.37032604
565, 3208292228, -144.85272216796875, 69.38931274414062, 12.873068809509277, 0.39149246, -0.20376827, -0.51577663
566, 3208308895, -144.61819458007812, 69.32087707519531, 12.83285903930664, 0.23022775, -0.13428904, -0.5217438
567, 3208325562, -144.4627227783203, 69.22686004638672, 12.654548645019531, 0.0074534444, -0.32878074, -0.33755207
568, 3208342229, -144.35374450683594, 69.1326675415039, 12.412755012512207, -0.14299937, -0.57537407, -0.3084755
569, 3208358896, -144.35867309570312, 69.04808807373047, 12.11464786529541, -0.20940393, -0.7453089, -0.29263115
570, 3208375563, -144.47723388671875, 68.96281433105469, 11.810948371887207, 0.06443332, -0.58292806, -0.32642174
571, 3208392230, -144.6605987548828, 68.8669204711914, 11.489063262939453, 0.3604666, -0.29610953, -0.42804623
572, 3208408897, -144.831298828125, 68.76313018798828, 11.163991928100586, 0.5657231, 0.024207124, -0.49963474
573, 3208425564, -144.92945861816406, 68.62479400634766, 10.82168960571289, 0.31289986, 0.119420625, -0.3608904
574, 3208442231, -144.86827087402344, 68.47425842285156, 10.589329719543457, -0.029454565, 0.10277595, -0.058366776
575, 3208458898, -144.7164306640625, 68.33663177490234, 10.455123901367188, -0.3766375, -0.13326211, 0.13357735
576, 3208475565, -144.55194091796875, 68.24447631835938, 10.40816879272461, -0.49556422, -0.1955831, 0.20382309
577, 3208492232, -144.42025756835938, 68.19803619384766, 10.47008991241455, -0.45346013, -0.2346763, 0.33753872
578, 3208508899, -144.27719116210938, 68.17538452148438, 10.634537696838379, -0.43189204, -0.18879436, 0.40793705
579, 3208525566, -144.1531982421875, 68.19461059570312, 10.857351303100586, -0.34177977, 0.05747524, 0.30502605
580, 3208542233, -144.07322692871094, 68.2300796508789, 11.116188049316406, -0.29555377, 0.17691587, 0.24830437
581, 3208558900, -143.95578002929688, 68.2569808959961, 11.421507835388184, -0.24701253, 0.1427128, 0.33585072
582, 3208575567, -143.75062561035156, 68.28994750976562, 11.769338607788086, -0.28563306, 0.1149906, 0.23089027
583, 3208592234, -143.5330047607422, 68.33450317382812, 12.092812538146973, -0.33850643, 0.022192266, 0.04227829
584, 3208608901, -143.27957153320312, 68.39492797851562, 12.443785667419434, -0.31868312, -0.099229135, -0.046671867
585, 3208625568, -142.98703002929688, 68.47541046142578, 12.828536987304688, -0.2214981, -0.13316724, -0.15835476
586, 3208642235, -142.68222045898438, 68.56275177001953, 13.21676254272461, -0.15695754, -0.19666737, -0.09344196
587, 3208658902, -142.35528564453125, 68.649658203125, 13.609147071838379, -0.020682422, -0.22411644, -0.15371609
588, 3208675569, -142.03909301757812, 68.72806549072266, 13.978382110595703, 0.16811065, -0.2104417, -0.23863506
589, 3208692236, -141.74021911621094, 68.78288269042969, 14.284783363342285, 0.26228297, -0.2111091, -0.2145071
590, 3208708903, -141.4620819091797, 68.81602478027344, 14.520553588867188, 0.18175754, -0.25653532, -0.15781403
591, 3208725570, -141.2079315185547, 68.83979797363281, 14.726311683654785, 0.12649958, -0.22951752, -0.082653046
592, 3208742237, -140.95191955566406, 68.86434173583984, 14.945367813110352, 0.114766315, -0.2626723, -0.038770676
593, 3208758904, -140.68667602539062, 68.88761138916016, 15.164328575134277, 0.07130595, -0.27704087, -0.058036804
594, 3208775571, -140.44764709472656, 68.90652465820312, 15.352933883666992, 0.016323235, -0.2652796, -0.10438633
595, 3208792238, -140.21116638183594, 68.92697143554688, 15.519110679626465, 2.809977E-4, -0.19655596, -0.14256096
596, 3208808905, -139.9505157470703, 68.95327758789062, 15.6730375289917, 0.010012221, -0.12867753, -0.15610027
597, 3208825572, -139.65020751953125, 68.97665405273438, 15.808826446533203, -0.04506932, -0.061636046, -0.075315475
598, 3208842239, -139.34153747558594, 68.99630737304688, 15.896273612976074, -0.06055173, -0.08235212, -0.07826424
599, 3208858906, -139.0529022216797, 69.02075958251953, 15.933481216430664, -0.056382358, -0.20716141, -0.13668633
600, 3208875573, -138.81764221191406, 69.04671478271484, 15.930948257446289, -0.069578044, -0.23399158, -0.24469852
601, 3208892240, -138.64080810546875, 69.0701675415039, 15.907480239868164, -0.074344166, -0.18602715, -0.30432606
602, 3208908907, -138.48886108398438, 69.080810546875, 15.882949829101562, -0.052088704, -0.10660204, -0.33225155
603, 3208925574, -138.3567352294922, 69.07238006591797, 15.854121208190918, -0.037498586, -0.1267076, -0.31520653
604, 3208942241, -138.2808380126953, 69.0470199584961, 15.791236877441406, -0.076489165, -0.17237286, -0.27613735
605, 3208958908, -138.2650604248047, 69.01014709472656, 15.71181869506836, -0.2220323, -0.17449835, -0.23484325
606, 3208975575, -138.2702178955078, 68.97803497314453, 15.664762496948242, -0.2574543, -0.16929285, -0.15048313
607, 3208992242, -138.29376220703125, 68.95268249511719, 15.643142700195312, -0.28759658, -0.17702182, -0.10364914
608, 3209008909, -138.34519958496094, 68.92656707763672, 15.610919952392578, -0.2377429, -0.08938216, -0.013709068
609, 3209025576, -138.42347717285156, 68.89290618896484, 15.529038429260254, -0.15369977, 0.09067645, -0.009426117
610, 3209042243, -138.53158569335938, 68.84969329833984, 15.367195129394531, -0.08575457, 0.13416354, -0.050488472
611, 3209058910, -138.6049346923828, 68.7972183227539, 15.198180198669434, -0.037732787, 0.036709208, -0.09439945
612, 3209075577, -138.67410278320312, 68.73785400390625, 15.035500526428223, -0.096366435, -0.098650016, -0.11485958
613, 3209092244, -138.76577758789062, 68.67573547363281, 14.890510559082031, -0.18311194, -0.22059119, -0.20107651
614, 3209108911, -138.89796447753906, 68.61373138427734, 14.777976989746094, -0.21963301, -0.20642024, -0.28718662
615, 3209125578, -139.05540466308594, 68.55217742919922, 14.706872940063477, -0.15308116, -0.17715749, -0.24252224
616, 3209142245, -139.20767211914062, 68.49666595458984, 14.658275604248047, -0.07824356, -0.0751901, -0.20950508
617, 3209158912, -139.33030700683594, 68.45182800292969, 14.622754096984863, -0.05777008, -0.047990132, -0.24092293
618, 3209175579, -139.41612243652344, 68.4090805053711, 14.600895881652832, -0.100432865, -0.09518456, -0.2004919
619, 3209192246, -139.46951293945312, 68.36929321289062, 14.608827590942383, -0.07024339, -0.15280788, -0.14122772
620, 3209208913, -139.4821319580078, 68.33724212646484, 14.659423828125, -0.009006902, -0.12115117, -0.14838123
621, 3209225580, -139.4071807861328, 68.31168365478516, 14.771743774414062, 0.028158078, -0.035710555, -0.09548473
622, 3209242247, -139.217529296875, 68.30066680908203, 14.97421646118164, 0.033443965, 0.043510597, -0.100403786
623, 3209258914, -138.9136505126953, 68.30224609375, 15.265705108642578, 0.049922623, 0.03673212, -0.08320904
624, 3209275581, -138.49551391601562, 68.31074523925781, 15.645622253417969, 0.0077990377, -0.028388605, -0.061867714
625, 3209292248, -137.98143005371094, 68.32981872558594, 16.127548217773438, -0.120565094, -0.021229774, -0.06887627
626, 3209308915, -137.39175415039062, 68.35696411132812, 16.70794105529785, -0.18966457, 0.0183094, -0.1385746
627, 3209325582, -136.73159790039062, 68.39823150634766, 17.39131736755371, -0.19159584, 0.018595273, -0.17566776
628, 3209342249, -136.02853393554688, 68.46210479736328, 18.13637351989746, -0.15527508, -0.018564427, -0.25629425
629, 3209358916, -135.33457946777344, 68.54176330566406, 18.865673065185547, -0.16645028, -0.105068855, -0.37378216
630, 3209375583, -134.67160034179688, 68.60177612304688, 19.512840270996094, -0.06261768, -0.18284567, -0.40563297
631, 3209392250, -134.0323028564453, 68.62667083740234, 20.061635971069336, 0.09562935, -0.20089422, -0.43475914
632, 3209408917, -133.45516967773438, 68.63842010498047, 20.501461029052734, 0.10341014, -0.1679339, -0.3800764
633, 3209425584, -132.95916748046875, 68.64754486083984, 20.835790634155273, 0.093695134, -0.1517131, -0.36400127
634, 3209442251, -132.56607055664062, 68.64324188232422, 21.04659652709961, 0.037728287, -0.14198247, -0.3188553
635, 3209458918, -132.2194366455078, 68.62309265136719, 21.175466537475586, 0.017519588, -0.07415288, -0.24660492
636, 3209475585, -131.90704345703125, 68.59172058105469, 21.21803855895996, -0.07031881, -0.09888783, -0.19112396
637, 3209492252, -131.6377410888672, 68.5542984008789, 21.202192306518555, -0.17671679, -0.14083037, -0.15200329
638, 3209508919, -131.43698120117188, 68.51226043701172, 21.14796257019043, -0.22293434, -0.19273634, -0.14409065
639, 3209525586, -131.26019287109375, 68.46504211425781, 21.104570388793945, -0.21970513, -0.15681657, -0.050997734
640, 3209542253, -131.0667724609375, 68.42228698730469, 21.10225486755371, -0.19790225, -0.08251763, -0.013051033
641, 3209558920, -130.8850555419922, 68.3935546875, 21.13140296936035, -0.1155745, -0.03568921, -0.08646011
642, 3209575587, -130.73570251464844, 68.3694839477539, 21.16951560974121, -0.0554744, -0.016161922, -0.15375423
643, 3209592254, -130.59768676757812, 68.33671569824219, 21.210147857666016, -0.021555142, -0.029281538, -0.1577406
644, 3209608921, -130.43994140625, 68.28633880615234, 21.250614166259766, -0.0016769338, -0.00584464, -0.1230278
645, 3209625588, -130.2366180419922, 68.22904205322266, 21.31336784362793, -0.010125612, 0.02910474, -0.17808056
646, 3209642255, -130.03451538085938, 68.16488647460938, 21.361034393310547, -0.026491007, -0.009280928, -0.22431374
647, 3209658922, -129.84584045410156, 68.09683990478516, 21.41036033630371, -0.04855453, -0.10692022, -0.23873329
648, 3209675589, -129.68373107910156, 68.02413940429688, 21.46513557434082, -0.044793617, -0.22799641, -0.26099396
649, 3209692256, -129.5487060546875, 67.94696807861328, 21.52416229248047, -0.059517898, -0.22609319, -0.20907307
650, 3209708923, -129.4329071044922, 67.86732482910156, 21.567270278930664, -0.10172957, -0.096427515, -0.13263226
651, 3209725590, -129.33663940429688, 67.78986358642578, 21.583114624023438, -0.1325813, -0.033258952, -0.09986305
652, 3209742257, -129.2547607421875, 67.71632385253906, 21.58289909362793, -0.12275114, -0.10514362, -0.08645439
653, 3209758924, -129.1817169189453, 67.6565170288086, 21.586349487304688, -0.101612315, -0.21590726, -0.13933372
654, 3209775591, -129.135498046875, 67.60650634765625, 21.595672607421875, -0.13636512, -0.20272346, -0.20847225
655, 3209792258, -129.09388732910156, 67.55852508544922, 21.638755798339844, -0.16705507, -0.15325904, -0.22350216
656, 3209808925, -129.0557861328125, 67.51130676269531, 21.694046020507812, -0.11028777, -0.16751134, -0.2026186
657, 3209825592, -129.01487731933594, 67.47246551513672, 21.747507095336914, -0.03772843, -0.16465819, -0.23061848
658, 3209842259, -128.9791717529297, 67.4492416381836, 21.796018600463867, -0.0048889127, -0.17344101, -0.30734253
659, 3209858926, -128.95504760742188, 67.4364242553711, 21.841014862060547, -0.013640409, -0.1647001, -0.37022018
660, 3209875593, -128.93011474609375, 67.42578125, 21.877355575561523, -0.056896508, -0.1694796, -0.36991024
661, 3209892260, -128.9130401611328, 67.41626739501953, 21.881990432739258, -0.06025328, -0.18776384, -0.33610535
662, 3209908927, -128.90892028808594, 67.4113540649414, 21.855966567993164, -0.08813421, -0.21187977, -0.2661209
663, 3209925594, -128.8997344970703, 67.41267395019531, 21.827163696289062, -0.17632848, -0.25786063, -0.18201828
664, 3209942261, -128.92221069335938, 67.41954040527344, 21.786752700805664, -0.18441428, -0.25415748, -0.09075928
665, 3209958928, -128.96763610839844, 67.44342041015625, 21.745790481567383, -0.10781553, -0.25042123, -0.049334526
666, 3209975595, -129.02951049804688, 67.48198699951172, 21.697267532348633, -0.04011228, -0.27251592, -0.044283867
667, 3209992262, -129.11607360839844, 67.52806091308594, 21.62453269958496, 0.038552884, -0.2666694, -0.10129547
668, 3210008929, -129.2116241455078, 67.57078552246094, 21.535295486450195, 0.12087695, -0.23614256, -0.24388313
669, 3210025596, -129.3260955810547, 67.60609436035156, 21.419090270996094, 0.17851655, -0.19251004, -0.33313942
670, 3210042263, -129.4493865966797, 67.63521575927734, 21.277780532836914, 0.18056695, -0.21944256, -0.35405922
671, 3210058930, -129.5791473388672, 67.65535736083984, 21.116790771484375, 0.094989516, -0.22214818, -0.39723969
672, 3210075597, -129.71475219726562, 67.66529083251953, 20.934608459472656, 0.02878953, -0.20080705, -0.39891624
673, 3210092264, -129.84225463867188, 67.66765594482422, 20.739042282104492, -0.06261241, -0.20760922, -0.30788994
674, 3210108931, -129.96115112304688, 67.67732238769531, 20.54018211364746, -0.08130757, -0.23809886, -0.19651127
675, 3210125598, -130.08584594726562, 67.69783020019531, 20.330366134643555, -0.09892002, -0.16747849, -0.16919422
676, 3210142265, -130.21798706054688, 67.72054290771484, 20.103546142578125, -0.06566305, -0.07385963, -0.14412022
677, 3210158932, -130.3347625732422, 67.74554443359375, 19.88785743713379, 0.003726352, -0.053588126, -0.11044502
678, 3210175599, -130.43724060058594, 67.77408599853516, 19.69313621520996, 0.03309076, -0.06083397, -0.053129196
679, 3210192266, -130.53807067871094, 67.80879211425781, 19.509035110473633, -0.028492259, -0.08253842, -0.0271101
680, 3210208933, -130.6457977294922, 67.84554290771484, 19.338335037231445, -0.058308944, -0.10938545, -0.104320526
681, 3210225600, -130.7350616455078, 67.87483978271484, 19.211164474487305, -0.08195806, -0.13734514, -0.17645168
682, 3210242267, -130.795166015625, 67.89631652832031, 19.126834869384766, -0.059981547, -0.111448474, -0.18036938
683, 3210258934, -130.82383728027344, 67.91735076904297, 19.068458557128906, -0.019500835, -0.07267345, -0.18024635
684, 3210275601, -130.80950927734375, 67.93842315673828, 19.04304313659668, -0.019380277, -0.084385976, -0.16966248
685, 3210292268, -130.76890563964844, 67.96098327636719, 19.051986694335938, -0.07982254, -0.1187017, -0.17826557
686, 3210308935, -130.73553466796875, 67.98516845703125, 19.07358169555664, -0.07744364, -0.105343, -0.24824524
687, 3210325602, -130.69583129882812, 68.00463104248047, 19.11974334716797, -0.019191604, -0.10340827, -0.21379375
688, 3210342269, -130.61618041992188, 68.02613830566406, 19.204862594604492, -0.026763972, -0.09097715, -0.22607327
689, 3210358936, -130.50636291503906, 68.0499038696289, 19.319835662841797, -0.02587699, -0.11356872, -0.2601328
690, 3210375603, -130.37930297851562, 68.0788803100586, 19.45545196533203, -0.03456842, -0.12337465, -0.27309895
691, 3210392270, -130.2481231689453, 68.10613250732422, 19.58798599243164, -0.03917964, -0.091622874, -0.29756355
692, 3210408937, -130.09974670410156, 68.1316146850586, 19.721317291259766, -0.061562955, -0.08481266, -0.28277874
693, 3210425604, -129.92074584960938, 68.15370178222656, 19.85968017578125, -0.08291954, -0.12588026, -0.27829266
694, 3210442271, -129.7226104736328, 68.17459869384766, 20.010414123535156, -0.11129395, -0.16398162, -0.22739506
695, 3210458938, -129.52389526367188, 68.20234680175781, 20.177534103393555, -0.13050455, -0.20917538, -0.18850327
696, 3210475605, -129.35264587402344, 68.23539733886719, 20.344297409057617, -0.13389117, -0.21350203, -0.19071007
697, 3210492272, -129.21461486816406, 68.26628112792969, 20.489023208618164, -0.087772675, -0.19532439, -0.23381615
698, 3210508939, -129.09510803222656, 68.2944107055664, 20.612342834472656, -0.03800757, -0.15461107, -0.2296772
699, 3210525606, -128.96612548828125, 68.31683349609375, 20.726131439208984, -0.04723991, -0.11405665, -0.26534843
700, 3210542273, -128.83229064941406, 68.3340835571289, 20.8271484375, -0.084352255, -0.12462054, -0.223073
701, 3210558940, -128.71682739257812, 68.34905242919922, 20.91310691833496, -0.1457947, -0.1865828, -0.16261768
702, 3210575607, -128.6331329345703, 68.37116241455078, 20.98340606689453, -0.18743967, -0.21984957, -0.12582207
703, 3210592274, -128.5758056640625, 68.40226745605469, 21.036218643188477, -0.11999486, -0.22008449, -0.084046364
704, 3210608941, -128.52880859375, 68.43394470214844, 21.06880760192871, -0.10191503, -0.14934242, -0.062207222
705, 3210625608, -128.50099182128906, 68.45611572265625, 21.051231384277344, -0.11071703, -0.028685654, -0.021209717
706, 3210642275, -128.49107360839844, 68.47293090820312, 20.986326217651367, -0.046044536, 0.007215669, -0.020188332
707, 3210658942, -128.4756622314453, 68.48905944824219, 20.908342361450195, -0.06409098, -0.0432447, -0.095677376
708, 3210675609, -128.47386169433594, 68.5009765625, 20.80824851989746, -0.17645814, -0.056217533, -0.18330383
709, 3210692276, -128.48931884765625, 68.5055160522461, 20.696123123168945, -0.24411373, -0.059535805, -0.11351395
710, 3210708943, -128.51058959960938, 68.50588989257812, 20.59593391418457, -0.259311, -0.054659646, -0.039390564
711, 3210725610, -128.51437377929688, 68.51102447509766, 20.52389907836914, -0.2839504, -0.058020387, 0.004720688
712, 3210742277, -128.5105438232422, 68.52476501464844, 20.464927673339844, -0.30532184, -0.13261828, 0.007959366
713, 3210758944, -128.50685119628906, 68.54142761230469, 20.41588592529297, -0.22832353, -0.107327566, -0.05338478
714, 3210775611, -128.49501037597656, 68.55978393554688, 20.38060188293457, -0.16037466, -0.022116607, -0.09236431
715, 3210792278, -128.47357177734375, 68.57754516601562, 20.353424072265625, -0.005865036, 0.03630543, -0.11247635
716, 3210808945, -128.42945861816406, 68.59140014648438, 20.31951332092285, 0.027849883, 0.086409435, -0.20056725
717, 3210825612, -128.39010620117188, 68.59487915039062, 20.25087547302246, 0.02284132, 0.0579245, -0.2713461
718, 3210842279, -128.34823608398438, 68.5918960571289, 20.193775177001953, -0.053361624, -0.06415112, -0.30079365
719, 3210858946, -128.31735229492188, 68.58663940429688, 20.167619705200195, -0.14758068, -0.1562796, -0.3226738
720, 3210875613, -128.31546020507812, 68.57789611816406, 20.154830932617188, -0.2307028, -0.16237791, -0.35958385
721, 3210892280, -128.34524536132812, 68.5695571899414, 20.150915145874023, -0.31114107, -0.15945391, -0.30595684
722, 3210908947, -128.40797424316406, 68.57044219970703, 20.16274642944336, -0.31643426, -0.20878457, -0.2692051
723, 3210925614, -128.48960876464844, 68.58295440673828, 20.20018768310547, -0.2876914, -0.21975961, -0.28295422
724, 3210942281, -128.55653381347656, 68.60982513427734, 20.281335830688477, -0.23364438, -0.20793857, -0.30624294
725, 3210958948, -128.66770935058594, 68.64849090576172, 20.339452743530273, -0.2554129, -0.24357258, -0.27495003
726, 3210975615, -128.8408203125, 68.68765258789062, 20.359346389770508, -0.13296129, -0.24870689, -0.22604465
727, 3210992282, -129.04017639160156, 68.72513580322266, 20.349380493164062, 0.07133841, -0.18110584, -0.26428604
728, 3211008949, -129.25100708007812, 68.75834655761719, 20.2959041595459, 0.15009256, -0.21753019, -0.22393608
729, 3211025616, -129.47821044921875, 68.79010772705078, 20.20448875427246, 0.06601651, -0.2973329, -0.15655804
730, 3211042283, -129.7206268310547, 68.81949615478516, 20.10618782043457, 0.007257326, -0.24383318, -0.14078903
731, 3211058950, -129.91917419433594, 68.8415298461914, 20.03472137451172, 0.07633029, -0.11852534, -0.1574955
732, 3211075617, -130.07952880859375, 68.85326385498047, 19.943323135375977, 0.24263462, -0.033517778, -0.13610172
733, 3211092284, -130.18331909179688, 68.86292266845703, 19.84615707397461, 0.2419487, -0.0028426377, -0.10042858
734, 3211108951, -130.22894287109375, 68.87837219238281, 19.764638900756836, 0.109336644, -0.002499769, -0.17131329
735, 3211125618, -130.2488250732422, 68.88716125488281, 19.680906295776367, 0.01685254, -0.017391097, -0.2022314
736, 3211142285, -130.24449157714844, 68.88545989990234, 19.5880126953125, -0.030822074, -0.09260656, -0.23321629
737, 3211158952, -130.248291015625, 68.88274383544922, 19.490886688232422, -0.13107082, -0.15007487, -0.2395277
738, 3211175619, -130.27027893066406, 68.8967056274414, 19.4277400970459, -0.31031647, -0.2056631, -0.23618221
739, 3211192286, -130.31863403320312, 68.9312973022461, 19.4318790435791, -0.5100306, -0.22529256, -0.24389076
740, 3211208953, -130.43153381347656, 68.97244262695312, 19.478408813476562, -0.5318635, -0.24594471, -0.24088383
741, 3211225620, -130.57144165039062, 69.0221176147461, 19.567081451416016, -0.37411898, -0.22597204, -0.1576128
742, 3211242287, -130.72152709960938, 69.0746841430664, 19.682435989379883, -0.08477168, -0.16290641, -0.09966564
743, 3211258954, -130.8384552001953, 69.12290954589844, 19.804588317871094, 0.05599248, -0.05616456, -0.1283207
744, 3211275621, -130.94931030273438, 69.16374206542969, 19.893234252929688, 0.19705921, -9.114858E-4, -0.14462852
745, 3211292288, -131.04774475097656, 69.19847106933594, 19.94274139404297, 0.2717035, -0.06525148, -0.0864563
746, 3211308955, -131.09597778320312, 69.23424530029297, 19.98807144165039, 0.25650844, -0.117767856, -0.13753605
747, 3211325622, -131.11898803710938, 69.25470733642578, 20.01167106628418, 0.23615345, -0.12119688, -0.1726551
748, 3211342289, -131.11766052246094, 69.25348663330078, 19.99673080444336, 0.28409395, -0.091958374, -0.2168684
749, 3211358956, -131.0880889892578, 69.23548126220703, 19.945283889770508, 0.27919203, -0.06305703, -0.23354435
750, 3211375623, -131.04473876953125, 69.20176696777344, 19.865835189819336, 0.19267833, -0.023200868, -0.20819664
751, 3211392290, -130.97702026367188, 69.1670150756836, 19.791624069213867, 0.05719713, -0.06346762, -0.17312908
752, 3211408957, -130.9104766845703, 69.1370849609375, 19.73399543762207, -0.10174399, -0.15792565, -0.18597889
753, 3211425624, -130.86001586914062, 69.11219787597656, 19.694684982299805, -0.18009081, -0.27296966, -0.20795536
754, 3211442291, -130.8348388671875, 69.08966827392578, 19.672006607055664, -0.3115188, -0.21764104, -0.19196033
755, 3211458958, -130.82472229003906, 69.07615661621094, 19.670682907104492, -0.31916845, -0.20455997, -0.1740818
756, 3211475625, -130.8045196533203, 69.0683822631836, 19.68723487854004, -0.27340657, -0.14565612, -0.1990881
757, 3211492292, -130.78916931152344, 69.06562805175781, 19.70590591430664, -0.18450229, -0.13168423, -0.16350174
758, 3211508959, -130.78030395507812, 69.07086944580078, 19.72113609313965, -0.044641264, -0.0669475, -0.11682224
759, 3211525626, -130.73345947265625, 69.08002471923828, 19.75882339477539, 0.05044626, -0.04179737, -0.11533737
760, 3211542293, -130.657470703125, 69.08818054199219, 19.788421630859375, 0.079472296, -0.027800094, -0.16030598
761, 3211558960, -130.58575439453125, 69.0875244140625, 19.778533935546875, 0.061458156, -0.047923412, -0.15473843
762, 3211575627, -130.50149536132812, 69.0790023803711, 19.75835418701172, -0.039229095, -0.095601186, -0.1693058
763, 3211592294, -130.41033935546875, 69.06505584716797, 19.742385864257812, -0.07132684, -0.15309945, -0.22441006
764, 3211608961, -130.33689880371094, 69.04964447021484, 19.7235164642334, -0.12610501, -0.11551697, -0.22577
765, 3211625628, -130.2865447998047, 69.04150390625, 19.701587677001953, -0.23301804, -0.1113698, -0.22849178
766, 3211642295, -130.2573699951172, 69.04457092285156, 19.67447853088379, -0.24138217, -0.102868594, -0.25807095
767, 3211658962, -130.22976684570312, 69.05113983154297, 19.64712905883789, -0.26886958, -0.06182078, -0.29333496
768, 3211675629, -130.23638916015625, 69.05184173583984, 19.596303939819336, -0.24628557, -0.029070988, -0.3545437
769, 3211692296, -130.28128051757812, 69.04583740234375, 19.527738571166992, -0.23743382, -0.052773867, -0.2678938
770, 3211708963, -130.34378051757812, 69.04240417480469, 19.477941513061523, -0.29631177, -0.09792438, -0.20651627
771, 3211725630, -130.4026336669922, 69.0555191040039, 19.47088623046875, -0.3477827, -0.16887599, -0.17268181
772, 3211742297, -130.4947052001953, 69.0818862915039, 19.477174758911133, -0.33955908, -0.19581945, -0.13394642
773, 3211758964, -130.6110382080078, 69.1134262084961, 19.486751556396484, -0.22906932, -0.15277334, -0.09873676
774, 3211775631, -130.72068786621094, 69.15299987792969, 19.494216918945312, -0.05086188, -0.06015896, -0.07796478
775, 3211792298, -130.80343627929688, 69.19427490234375, 19.489173889160156, 0.078464, 0.0106801195, -0.08281708
776, 3211808965, -130.86077880859375, 69.23289489746094, 19.456802368164062, 0.15553951, -6.274009E-4, -0.11930561
777, 3211825632, -130.89276123046875, 69.2696762084961, 19.41659927368164, 0.12054065, -0.03748737, -0.15742779
778, 3211842299, -130.91136169433594, 69.29944610595703, 19.361474990844727, 0.052162085, -0.13114321, -0.25171375
779, 3211858966, -130.94093322753906, 69.3128433227539, 19.276100158691406, -0.051172256, -0.12850441, -0.32363415
780, 3211875633, -130.99508666992188, 69.3177261352539, 19.17401695251465, -0.13298216, -0.117856145, -0.26195145
781, 3211892300, -131.044921875, 69.32571411132812, 19.096912384033203, -0.19785392, -0.13884468, -0.21297646
782, 3211908967, -131.09426879882812, 69.3432388305664, 19.044435501098633, -0.15764014, -0.09691879, -0.24298668
783, 3211925634, -131.146484375, 69.36031341552734, 18.993574142456055, -0.15414327, -0.08118918, -0.22463799
784, 3211942301, -131.22955322265625, 69.37419891357422, 18.930343627929688, -0.12646103, -0.07559744, -0.20145702
785, 3211958968, -131.3309783935547, 69.39075469970703, 18.866344451904297, -0.096853636, -0.044769645, -0.1911087
786, 3211975635, -131.44769287109375, 69.40787506103516, 18.79680061340332, -0.049152512, -0.026451416, -0.19433689
787, 3211992302, -131.57325744628906, 69.41966247558594, 18.724802017211914, 0.016634393, -0.08485513, -0.19505978
788, 3212008969, -131.67462158203125, 69.43281555175781, 18.68185043334961, -0.003713305, -0.12895688, -0.18503475
789, 3212025636, -131.76071166992188, 69.44757080078125, 18.65458869934082, -0.044511877, -0.15103273, -0.1401186
790, 3212042303, -131.84738159179688, 69.45662689208984, 18.62006950378418, -0.034495343, -0.14085495, -0.13228798
791, 3212058970, -131.94223022460938, 69.45886993408203, 18.564498901367188, 0.0585058, -0.08626483, -0.13322067
792, 3212075637, -132.00331115722656, 69.46031951904297, 18.50948143005371, 0.082613654, -0.08282608, -0.08681774
793, 3212092304, -132.02134704589844, 69.46038055419922, 18.46230125427246, 0.037875976, -0.065285005, -0.11307144
794, 3212108971, -132.03916931152344, 69.45305633544922, 18.38591957092285, 0.022126917, 0.019659529, -0.13867569
795, 3212125638, -132.0524139404297, 69.4444351196289, 18.292728424072266, -0.046343427, -0.036953397, -0.1384592
796, 3212142305, -132.0594024658203, 69.43839263916016, 18.213422775268555, -0.046582084, -0.14832577, -0.18371296
797, 3212158972, -132.07875061035156, 69.43338012695312, 18.137346267700195, -0.12121387, -0.14997284, -0.22773075
798, 3212175639, -132.1198272705078, 69.41967010498047, 18.04705047607422, -0.17239454, -0.12230137, -0.22650051
799, 3212192306, -132.18125915527344, 69.40157318115234, 17.96246337890625, -0.22663367, -0.08083636, -0.17447853
800, 3212208973, -132.25067138671875, 69.38703155517578, 17.899656295776367, -0.18442594, -0.081761375, -0.17050552
801, 3212225640, -132.3146514892578, 69.3853530883789, 17.856586456298828, -0.19467458, -0.1263264, -0.1532669
802, 3212242307, -132.38711547851562, 69.39026641845703, 17.80845832824707, -0.12998131, -0.15469387, -0.13469887
803, 3212258974, -132.4521484375, 69.39854431152344, 17.757232666015625, -0.12481938, -0.1275242, -0.15694904
804, 3212275641, -132.48849487304688, 69.4081039428711, 17.71959686279297, -0.067945115, -0.100730576, -0.13507652
805, 3212292308, -132.50503540039062, 69.4146957397461, 17.682470321655273, -0.027704654, -0.10820061, -0.14286423
806, 3212308975, -132.5121307373047, 69.42681121826172, 17.64530372619629, -0.037783973, -0.1644329, -0.13936901
807, 3212325642, -132.5025634765625, 69.4396743774414, 17.62804412841797, -0.0929323, -0.24086158, -0.117967606
808, 3212342309, -132.4757537841797, 69.4527816772461, 17.634933471679688, -0.03898717, -0.22837918, -0.11786556
809, 3212358976, -132.4446563720703, 69.45764923095703, 17.63706398010254, -0.01091953, -0.14021538, -0.14195442
810, 3212375643, -132.4064483642578, 69.4619369506836, 17.634387969970703, -0.03751123, -0.06981561, -0.13565159
811, 3212392310, -132.33851623535156, 69.4753189086914, 17.652517318725586, -0.11438052, -0.059681088, -0.20596695
812, 3212408977, -132.2660675048828, 69.484130859375, 17.658361434936523, -0.16949582, -0.04944442, -0.27340603
813, 3212425644, -132.2061767578125, 69.48347473144531, 17.63700294494629, -0.19078097, -0.07264171, -0.3053131
814, 3212442311, -132.1759490966797, 69.48125457763672, 17.605571746826172, -0.13809553, -0.12005294, -0.30789948
815, 3212458978, -132.16847229003906, 69.47977447509766, 17.58267593383789, -0.15269497, -0.10269951, -0.31087875
816, 3212475645, -132.17788696289062, 69.47657775878906, 17.56439971923828, -0.20531173, -0.071394846, -0.33409595
817, 3212492312, -132.22279357910156, 69.46630096435547, 17.52696990966797, -0.26555824, -0.04655741, -0.29178143
818, 3212508979, -132.28700256347656, 69.4543228149414, 17.495086669921875, -0.26917994, -0.09676658, -0.22756004
819, 3212525646, -132.3759307861328, 69.4450454711914, 17.477590560913086, -0.2431037, -0.14599508, -0.22284603
820, 3212542313, -132.49256896972656, 69.43515014648438, 17.46992301940918, -0.2492411, -0.14995468, -0.22394085
821, 3212558980, -132.63124084472656, 69.42645263671875, 17.475175857543945, -0.2211019, -0.14966707, -0.19525528
822, 3212575647, -132.76885986328125, 69.42181396484375, 17.49920082092285, -0.12912129, -0.1571381, -0.17613602
823, 3212592314, -132.89926147460938, 69.41950988769531, 17.508636474609375, -0.020565568, -0.14543384, -0.15950203
824, 3212608981, -133.0253448486328, 69.4150161743164, 17.482084274291992, 0.080882214, -0.1384455, -0.15485573
825, 3212625648, -133.1200714111328, 69.41170501708984, 17.443744659423828, 0.08223748, -0.14174901, -0.19889164
826, 3212642315, -133.18502807617188, 69.40804290771484, 17.400493621826172, 0.02144129, -0.20061941, -0.2638111
827, 3212658982, -133.2552947998047, 69.39197540283203, 17.330671310424805, -0.045351475, -0.20175453, -0.2633705
828, 3212675649, -133.33592224121094, 69.36897277832031, 17.242830276489258, -0.11952177, -0.1510619, -0.1658411
829, 3212692316, -133.40866088867188, 69.3520736694336, 17.188785552978516, -0.13936491, -0.17534156, -0.12349701
830, 3212708983, -133.4873809814453, 69.3473129272461, 17.148534774780273, -0.18098874, -0.23774973, -0.09625244
831, 3212725650, -133.57875061035156, 69.34733581542969, 17.11161231994629, -0.15603612, -0.26847684, -0.12746143
832, 3212742317, -133.68234252929688, 69.34712982177734, 17.077699661254883, -0.09173827, -0.20409304, -0.16058159
833, 3212758984, -133.7989044189453, 69.34335327148438, 17.035728454589844, 0.03144344, -0.114881635, -0.17349243
834, 3212775651, -133.8983154296875, 69.33636474609375, 16.99250602722168, 0.07431876, -0.058779214, -0.18719769
835, 3212792318, -133.9677734375, 69.32315826416016, 16.930957794189453, 0.046749216, -0.04873577, -0.17513657
836, 3212808985, -134.00262451171875, 69.30671691894531, 16.87502098083496, 0.019155396, -0.10430266, -0.18760395
837, 3212825652, -134.02804565429688, 69.28652954101562, 16.81494903564453, -0.05250007, -0.13931006, -0.22366333
838, 3212842319, -134.06411743164062, 69.26506042480469, 16.75257682800293, -0.10447714, -0.13496149, -0.29078007
839, 3212858986, -134.11880493164062, 69.2376708984375, 16.676532745361328, -0.15772209, -0.07936889, -0.2953806
840, 3212875653, -134.17330932617188, 69.20664978027344, 16.615373611450195, -0.21769401, -0.097203106, -0.23035145
841, 3212892320, -134.24856567382812, 69.17540740966797, 16.56583595275879, -0.23979566, -0.16121788, -0.16406155
842, 3212908987, -134.34945678710938, 69.15091705322266, 16.52691078186035, -0.18337905, -0.23280215, -0.08425331
843, 3212925654, -134.45977783203125, 69.13921356201172, 16.49895477294922, -0.10453114, -0.20573261, -0.07169628
844, 3212942321, -134.55630493164062, 69.13456726074219, 16.482694625854492, -9.353179E-4, -0.086400494, -0.15228558
845, 3212958988, -134.65216064453125, 69.1198501586914, 16.42142105102539, 0.09645425, 0.025610562, -0.21202183
846, 3212975655, -134.71786499023438, 69.10243225097656, 16.33842658996582, 0.09390257, 0.030800756, -0.20214272
847, 3212992322, -134.75111389160156, 69.08831024169922, 16.260835647583008, 0.034028787, -0.06332569, -0.22239113
848, 3213008989, -134.7672576904297, 69.0759048461914, 16.185482025146484, -0.09057382, -0.20569909, -0.2489605
849, 3213025656, -134.79148864746094, 69.06847381591797, 16.12713050842285, -0.14632937, -0.22906402, -0.24560165
850, 3213042323, -134.81617736816406, 69.06224822998047, 16.075773239135742, -0.11939757, -0.1418144, -0.21956539
851, 3213058990, -134.83590698242188, 69.05712890625, 16.02796745300293, -0.045810934, -0.05675184, -0.19669819
852, 3213075657, -134.8583221435547, 69.05598449707031, 15.981611251831055, -0.03475847, -0.025741093, -0.19676018
853, 3213092324, -134.89724731445312, 69.05538177490234, 15.923523902893066, -0.055040225, -0.082141, -0.21053314
854, 3213108991, -134.95559692382812, 69.05387115478516, 15.861820220947266, -0.10075539, -0.12399996, -0.19794178
855, 3213125658, -135.01844787597656, 69.0543441772461, 15.813451766967773, -0.09451438, -0.1517872, -0.20277405
856, 3213142325, -135.094970703125, 69.05525970458984, 15.766317367553711, -0.08024093, -0.11417891, -0.22924423
857, 3213158992, -135.197021484375, 69.05783081054688, 15.706445693969727, -0.02829364, -0.07025068, -0.20891476
858, 3213175659, -135.2953338623047, 69.06195068359375, 15.659745216369629, -0.051206484, -0.09089713, -0.20737934
859, 3213192326, -135.39120483398438, 69.0685043334961, 15.628382682800293, -0.09997452, -0.14706214, -0.18931866
860, 3213208993, -135.477294921875, 69.07791137695312, 15.611543655395508, -0.07300137, -0.20691186, -0.13238335
861, 3213225660, -135.5463409423828, 69.09246063232422, 15.60161018371582, -0.08166758, -0.174437, -0.12387371
862, 3213242327, -135.5901336669922, 69.11361694335938, 15.61087417602539, 0.020076465, -0.11571132, -0.1622715
863, 3213258994, -135.60986328125, 69.13886260986328, 15.612317085266113, 0.14069375, -0.120460965, -0.1820736
864, 3213275661, -135.6031951904297, 69.16030883789062, 15.59618091583252, 0.18185726, -0.071187645, -0.1936531
865, 3213292328, -135.56260681152344, 69.18037414550781, 15.567054748535156, 0.12455363, -0.025765121, -0.15161037
866, 3213308995, -135.48887634277344, 69.20394134521484, 15.541170120239258, 0.044953708, -0.060813293, -0.16914177
867, 3213325662, -135.40106201171875, 69.22711944580078, 15.512510299682617, -0.033451285, -0.09234326, -0.23046494
868, 3213342329, -135.319580078125, 69.2420654296875, 15.483880043029785, -0.05683923, -0.14871311, -0.31228733
869, 3213358996, -135.25599670410156, 69.2490234375, 15.465788841247559, -0.05901184, -0.18160366, -0.34285164
870, 3213375663, -135.20584106445312, 69.24929809570312, 15.45445442199707, -0.107840754, -0.171898, -0.35396576
871, 3213392330, -135.1790008544922, 69.24727630615234, 15.460082054138184, -0.20382035, -0.15175423, -0.35106564
872, 3213408997, -135.1707000732422, 69.24392700195312, 15.473612785339355, -0.24519676, -0.1922246, -0.28675652
873, 3213425664, -135.1947784423828, 69.24281311035156, 15.504131317138672, -0.27134737, -0.24915358, -0.21987724
874, 3213442331, -135.2356414794922, 69.24994659423828, 15.559885025024414, -0.20568874, -0.28004965, -0.11499882
875, 3213458998, -135.28671264648438, 69.2650146484375, 15.621402740478516, -0.11144655, -0.22704245, -0.109230995
876, 3213475665, -135.33949279785156, 69.27867889404297, 15.662230491638184, 0.053800993, -0.14473392, -0.12150288
877, 3213492332, -135.36390686035156, 69.28543090820312, 15.68360710144043, 0.14898907, -0.07545585, -0.123747826
878, 3213508999, -135.37564086914062, 69.28881072998047, 15.673102378845215, 0.17596692, -0.07667847, -0.11990261
879, 3213525666, -135.35604858398438, 69.28585052490234, 15.644338607788086, 0.057586435, -0.11313075, -0.10562897
880, 3213542333, -135.32005310058594, 69.2806396484375, 15.594633102416992, -0.073185295, -0.15984574, -0.08639622
881, 3213559000, -135.28709411621094, 69.27880096435547, 15.548497200012207, -0.12913567, -0.19896519, -0.06326389
882, 3213575667, -135.25384521484375, 69.28128051757812, 15.505558967590332, -0.11463041, -0.18885817, -0.06659794
883, 3213592334, -135.23162841796875, 69.2893295288086, 15.452727317810059, -0.06158497, -0.10953331, -0.08066082
884, 3213609001, -135.2208709716797, 69.29328155517578, 15.376371383666992, -0.045307808, -0.0017016041, -0.13645935
885, 3213625668, -135.21612548828125, 69.28892517089844, 15.28246784210205, -0.04234249, 0.068979554, -0.19558525
886, 3213642335, -135.2135467529297, 69.27466583251953, 15.180262565612793, -0.11299809, 0.036175795, -0.2666273
887, 3213659002, -135.2150421142578, 69.25012969970703, 15.082651138305664, -0.14967981, 0.0034047728, -0.24605179
888, 3213675669, -135.2180633544922, 69.2105712890625, 14.991918563842773, -0.245909, 0.014827738, -0.20675278
889, 3213692336, -135.22662353515625, 69.1698989868164, 14.90554428100586, -0.33784136, 0.0064543835, -0.138031
890, 3213709003, -135.20924377441406, 69.15576171875, 14.876629829406738, -0.3703324, -0.07235427, -0.05782318
891, 3213725670, -135.15255737304688, 69.17244720458984, 14.922479629516602, -0.36179626, -0.1458926, -0.09245491
892, 3213742337, -135.0986785888672, 69.2069091796875, 15.02143669128418, -0.3041677, -0.1525363, -0.15435886
893, 3213759004, -135.07452392578125, 69.24188232421875, 15.133182525634766, -0.23473507, -0.10747643, -0.19892979
894, 3213775671, -135.06549072265625, 69.2779769897461, 15.247281074523926, -0.15275711, -0.07202515, -0.20086479
895, 3213792338, -135.0618896484375, 69.31633758544922, 15.358450889587402, -0.06706392, -0.07446904, -0.18611431
896, 3213809005, -135.0623016357422, 69.35649871826172, 15.446887969970703, 0.0028663022, -0.10232848, -0.16474533
897, 3213825672, -135.06045532226562, 69.3914794921875, 15.522878646850586, 0.055755783, -0.1086216, -0.17445087
898, 3213842339, -135.0790252685547, 69.4131088256836, 15.55124282836914, 0.13154598, -0.09796841, -0.21775341
899, 3213859006, -135.11595153808594, 69.4222640991211, 15.529155731201172, 0.14792353, -0.050687596, -0.21477985
900, 3213875673, -135.1365509033203, 69.42589569091797, 15.470730781555176, 0.09501066, -0.10143733, -0.24369526
901, 3213892340, -135.1271209716797, 69.42033386230469, 15.408015251159668, 0.017305458, -0.08435923, -0.2531681
902, 3213909007, -135.10057067871094, 69.40630340576172, 15.355636596679688, -0.08081351, -0.08423354, -0.24916744
903, 3213925674, -135.0904541015625, 69.39107513427734, 15.31124210357666, -0.21322164, -0.1371386, -0.25649548
904, 3213942341, -135.1030731201172, 69.38102722167969, 15.284503936767578, -0.28513163, -0.16182047, -0.26888657
905, 3213959008, -135.12718200683594, 69.37403106689453, 15.294032096862793, -0.2999543, -0.15785927, -0.27358913
906, 3213975675, -135.16476440429688, 69.37140655517578, 15.334091186523438, -0.26394466, -0.10060944, -0.22081184
907, 3213992342, -135.2095947265625, 69.37359619140625, 15.389945030212402, -0.22560157, -0.10614552, -0.18735313
908, 3214009009, -135.2601318359375, 69.38006591796875, 15.4548978805542, -0.15529802, -0.13637185, -0.13753128
909, 3214025676, -135.31094360351562, 69.39087677001953, 15.514514923095703, -0.059054498, -0.16494374, -0.11922836
910, 3214042343, -135.35635375976562, 69.40251922607422, 15.564370155334473, 0.040811844, -0.17456351, -0.12202549
911, 3214059010, -135.3986053466797, 69.40657043457031, 15.589338302612305, 0.145762, -0.17739463, -0.0981493
912, 3214075677, -135.42115783691406, 69.40509033203125, 15.594457626342773, 0.14777598, -0.080871455, -0.1207037
913, 3214092344, -135.41940307617188, 69.39999389648438, 15.572640419006348, 0.070490144, -0.076834925, -0.13066578
914, 3214109011, -135.40122985839844, 69.39078521728516, 15.534418106079102, -0.012594089, -0.115004905, -0.13942623
915, 3214125678, -135.38180541992188, 69.38191223144531, 15.49055290222168, -0.06504844, -0.1685053, -0.16803741
916, 3214142345, -135.37014770507812, 69.37588500976562, 15.462455749511719, -0.07444409, -0.24478781, -0.20454788
917, 3214159012, -135.36705017089844, 69.370849609375, 15.44494342803955, -0.1013308, -0.19672973, -0.25295067
918, 3214175679, -135.38839721679688, 69.36209869384766, 15.42026424407959, -0.12717445, -0.08263326, -0.25165558
919, 3214192346, -135.43023681640625, 69.34027099609375, 15.371064186096191, -0.09559269, -0.021681651, -0.2166996
920, 3214209013, -135.46578979492188, 69.31852722167969, 15.326030731201172, -0.13303271, -0.022906948, -0.18927097
921, 3214225680, -135.48484802246094, 69.30318450927734, 15.294270515441895, -0.14502968, -0.11454726, -0.16920471
922, 3214242347, -135.50282287597656, 69.2919921875, 15.285562515258789, -0.15843081, -0.1489116, -0.17869759
923, 3214259014, -135.5189666748047, 69.28363800048828, 15.28968620300293, -0.16944255, -0.15539649, -0.16308022
924, 3214275681, -135.5422821044922, 69.27293395996094, 15.286443710327148, -0.13041852, -0.14808728, -0.1893177
925, 3214292348, -135.5599365234375, 69.25839233398438, 15.288908958435059, -0.07650106, -0.08051607, -0.16943932
926, 3214309015, -135.56936645507812, 69.24247741699219, 15.289191246032715, -0.008695548, -0.07131125, -0.13849354
927, 3214325682, -135.56224060058594, 69.2276840209961, 15.298922538757324, -0.018813755, -0.09482694, -0.1035223
928, 3214342349, -135.5429229736328, 69.21858215332031, 15.314553260803223, -0.04998518, -0.14812115, -0.14151764
929, 3214359016, -135.52366638183594, 69.2122573852539, 15.338150024414062, -0.059865795, -0.17643721, -0.19356632
930, 3214375683, -135.50613403320312, 69.20358276367188, 15.36794662475586, -0.06507906, -0.13868666, -0.21856213
931, 3214392350, -135.4950714111328, 69.19830322265625, 15.376070976257324, -0.06781191, -0.0896829, -0.21446228
932, 3214409017, -135.47410583496094, 69.19804382324219, 15.38592529296875, -0.13076904, -0.07535482, -0.21998787
933, 3214425684, -135.45272827148438, 69.20155334472656, 15.389446258544922, -0.17219405, -0.103950396, -0.25569344
934, 3214442351, -135.4267120361328, 69.20561218261719, 15.394701957702637, -0.18499716, -0.11765407, -0.24990845
935, 3214459018, -135.38343811035156, 69.21236419677734, 15.430445671081543, -0.1863492, -0.12946877, -0.2601986
936, 3214475685, -135.3489227294922, 69.2216567993164, 15.47763729095459, -0.10351332, -0.14517513, -0.19740963
937, 3214492352, -135.3328399658203, 69.23403930664062, 15.51395034790039, -0.082889415, -0.17480434, -0.15256977
938, 3214509019, -135.32740783691406, 69.24968719482422, 15.553930282592773, -0.064200014, -0.13733418, -0.16952801
939, 3214525686, -135.3339385986328, 69.25897216796875, 15.577144622802734, -9.046687E-5, -0.10204294, -0.17320633
940, 3214542353, -135.33265686035156, 69.26070404052734, 15.585160255432129, 0.054722454, -0.0784383, -0.1735363
941, 3214559020, -135.3240509033203, 69.2568588256836, 15.597052574157715, 0.051864002, -0.04886038, -0.15004349
942, 3214575687, -135.30642700195312, 69.25203704833984, 15.610466003417969, 0.002902595, -0.068320535, -0.1458664
943, 3214592354, -135.28909301757812, 69.24931335449219, 15.619951248168945, -0.077359006, -0.12507528, -0.18171692
944, 3214609021, -135.26475524902344, 69.24791717529297, 15.640068054199219, -0.10079253, -0.14746748, -0.22978783
945, 3214625688, -135.25384521484375, 69.23915100097656, 15.647543907165527, -0.094303556, -0.13967213, -0.22209167
946, 3214642355, -135.25103759765625, 69.22636413574219, 15.628639221191406, -0.05971579, -0.09170479, -0.18456936
947, 3214659022, -135.2636260986328, 69.21536254882812, 15.604339599609375, -0.0473382, -0.10897218, -0.14925098
948, 3214675689, -135.2692413330078, 69.20692443847656, 15.598878860473633, -0.05955768, -0.095260665, -0.15849018
949, 3214692356, -135.26734924316406, 69.19813537597656, 15.591901779174805, -0.057865717, -0.083200574, -0.14696407
950, 3214709023, -135.25772094726562, 69.18787384033203, 15.583686828613281, -0.089153826, -0.024007874, -0.1450119
951, 3214725690, -135.23342895507812, 69.17942810058594, 15.582159996032715, -0.10333571, -0.054123215, -0.1434412
952, 3214742357, -135.18817138671875, 69.17606353759766, 15.595112800598145, -0.086090125, -0.104569755, -0.13064575
953, 3214759024, -135.13743591308594, 69.18053436279297, 15.606202125549316, -0.08115208, -0.13510765, -0.1756525
954, 3214775691, -135.09805297851562, 69.18968200683594, 15.61038589477539, -0.012360183, -0.14199342, -0.19733906
955, 3214792358, -135.0505828857422, 69.19611358642578, 15.604217529296875, -0.023861488, -0.068467945, -0.21583843
956, 3214809025, -134.9842529296875, 69.19815826416016, 15.6008882522583, -0.061561, -0.015977265, -0.25836277
957, 3214825692, -134.92079162597656, 69.19359588623047, 15.603936195373535, -0.101928025, -0.056090575, -0.2500515
958, 3214842359, -134.87245178222656, 69.19087219238281, 15.617432594299316, -0.14424735, -0.12901883, -0.27786255
959, 3214859026, -134.84738159179688, 69.19142150878906, 15.639761924743652, -0.1615843, -0.15315588, -0.33960724
960, 3214875693, -134.83447265625, 69.18860626220703, 15.677848815917969, -0.17867899, -0.114595205, -0.35778332
961, 3214892360, -134.83969116210938, 69.17864227294922, 15.705828666687012, -0.17508365, -0.07289685, -0.3120823
962, 3214909027, -134.8629913330078, 69.17091369628906, 15.711695671081543, -0.189408, -0.102377206, -0.22266197
963, 3214925694, -134.89430236816406, 69.17124938964844, 15.71738052368164, -0.2048558, -0.14904682, -0.2105751
964, 3214942361, -134.92379760742188, 69.1773452758789, 15.729844093322754, -0.24567032, -0.15635212, -0.21743298
965, 3214959028, -134.96231079101562, 69.18464660644531, 15.741738319396973, -0.14331533, -0.18444054, -0.21523666
966, 3214975695, -135.01039123535156, 69.19425201416016, 15.750136375427246, -0.049416725, -0.17861055, -0.1992073
967, 3214992362, -135.07814025878906, 69.20342254638672, 15.741009712219238, -0.015350032, -0.16221575, -0.19240475
968, 3215009029, -135.16952514648438, 69.20549774169922, 15.712273597717285, 0.004060141, -0.12712333, -0.18065166
969, 3215025696, -135.2650146484375, 69.20262908935547, 15.645796775817871, 0.008872906, -0.15078832, -0.15880966
970, 3215042363, -135.3547821044922, 69.20565795898438, 15.578177452087402, -0.02532304, -0.17268477, -0.17095089
971, 3215059030, -135.44955444335938, 69.20965576171875, 15.49202823638916, -0.058014885, -0.14046481, -0.2013483
972, 3215075697, -135.53591918945312, 69.21137237548828, 15.401511192321777, -0.10903457, -0.10225651, -0.21412468
973, 3215092364, -135.6026153564453, 69.20692443847656, 15.311235427856445, -0.08780575, -0.1316403, -0.17738724
974, 3215109031, -135.64332580566406, 69.19884490966797, 15.231337547302246, -0.10570791, -0.17622097, -0.14654636
975, 3215125698, -135.6702880859375, 69.19953918457031, 15.17543888092041, -0.08478556, -0.28176188, -0.12177372
976, 3215142365, -135.70529174804688, 69.21092987060547, 15.142459869384766, -0.037684314, -0.2603471, -0.20671749
977, 3215159032, -135.75904846191406, 69.22100067138672, 15.118932723999023, 0.042881574, -0.15752545, -0.2613964
978, 3215175699, -135.79823303222656, 69.2269058227539, 15.103245735168457, 0.106415525, -0.07713331, -0.24255276
979, 3215192366, -135.79708862304688, 69.22797393798828, 15.10964584350586, 0.074608035, -0.0689419, -0.20298862
980, 3215209033, -135.77284240722656, 69.22808074951172, 15.123641014099121, -0.032580897, -0.09761436, -0.15931988
981, 3215225700, -135.75350952148438, 69.22872924804688, 15.124451637268066, -0.11198831, -0.14431494, -0.08966637
982, 3215242367, -135.72122192382812, 69.22895050048828, 15.144180297851562, -0.13052316, -0.20388182, -0.06387138
983, 3215259034, -135.67135620117188, 69.2342758178711, 15.178596496582031, -0.062396824, -0.18396649, -0.059360504
984, 3215275701, -135.62185668945312, 69.23775482177734, 15.221600532531738, 0.018138133, -0.11813576, -0.13458347
985, 3215292368, -135.60043334960938, 69.23594665527344, 15.220113754272461, 0.038970098, -0.09001593, -0.1570301
986, 3215309035, -135.6041717529297, 69.22364044189453, 15.17513370513916, -0.023344532, -0.07931413, -0.18811703
987, 3215325702, -135.63848876953125, 69.19090270996094, 15.070144653320312, -0.12494098, -0.04670672, -0.24032307
988, 3215342369, -135.6973114013672, 69.14214324951172, 14.925785064697266, -0.1672831, -0.013749176, -0.282588
989, 3215359036, -135.79014587402344, 69.0762939453125, 14.745429039001465, -0.18370543, 0.03805118, -0.25887012
990, 3215375703, -135.90113830566406, 69.013916015625, 14.559962272644043, -0.2573703, 0.07863744, -0.22168541
991, 3215392370, -136.02423095703125, 68.96974182128906, 14.3722562789917, -0.33105904, 0.03444815, -0.19761562
992, 3215409037, -136.15524291992188, 68.9372329711914, 14.175901412963867, -0.26642227, -0.06426467, -0.21192646
993, 3215425704, -136.26124572753906, 68.91693115234375, 14.000840187072754, -0.21299908, -0.101070546, -0.21817112
994, 3215442371, -136.34864807128906, 68.90663146972656, 13.855003356933594, -0.12219266, -0.11175436, -0.22599316
995, 3215459038, -136.41952514648438, 68.90584564208984, 13.74436092376709, -0.01878157, -0.08269789, -0.21408081
996, 3215475705, -136.48146057128906, 68.91259002685547, 13.648446083068848, 0.1033358, -0.11691985, -0.18910217
997, 3215492372, -136.5347137451172, 68.92079162597656, 13.560991287231445, 0.08559183, -0.18527558, -0.20904446
998, 3215509039, -136.57655334472656, 68.92478942871094, 13.486651420593262, 0.022255687, -0.16111775, -0.24420738
999, 3215525706, -136.6124725341797, 68.92281341552734, 13.410447120666504, -0.012098282, -0.11114934, -0.23743153
1000, 3215542373, -136.63914489746094, 68.92144012451172, 13.348445892333984, -0.071041666, -0.08185503, -0.22468662
1001, 3215559040, -136.66104125976562, 68.92335510253906, 13.314620971679688, -0.12471188, -0.08065186, -0.20767498
1002, 3215575707, -136.68052673339844, 68.92874145507812, 13.292609214782715, -0.19221762, -0.1197046, -0.21668148
1003, 3215592374, -136.70481872558594, 68.93592834472656, 13.286955833435059, -0.2138286, -0.15719074, -0.24065876
1004, 3215609041, -136.73526000976562, 68.94465637207031, 13.291021347045898, -0.21616094, -0.14503242, -0.26569176
1005, 3215625708, -136.76376342773438, 68.95772552490234, 13.316497802734375, -0.19500485, -0.12825565, -0.25257683
1006, 3215642375, -136.7984161376953, 68.96996307373047, 13.336797714233398, -0.1741442, -0.1403135, -0.22022057
1007, 3215659042, -136.84413146972656, 68.98628997802734, 13.349749565124512, -0.101389974, -0.13181263, -0.20317459
1008, 3215675709, -136.88720703125, 69.00335693359375, 13.348105430603027, -0.060452294, -0.1258531, -0.1965456
1009, 3215692376, -136.9338836669922, 69.01888275146484, 13.337575912475586, 0.04399193, -0.13999286, -0.17071915
1010, 3215709043, -136.97323608398438, 69.03018951416016, 13.328348159790039, 0.03818618, -0.120744936, -0.16727543
1011, 3215725710, -137.02542114257812, 69.03959655761719, 13.300989151000977, 0.03512341, -0.13236304, -0.1385746
1012, 3215742377, -137.0951690673828, 69.04312896728516, 13.244172096252441, 0.017349383, -0.10608629, -0.104418755
1013, 3215759044, -137.171875, 69.0390853881836, 13.15146255493164, -0.01986178, -0.08654332, -0.054980278
1014, 3215775711, -137.2360076904297, 69.0354995727539, 13.05697250366211, -0.06061336, -0.06769023, -0.0014305115
1015, 3215792378, -137.2781219482422, 69.039306640625, 12.966229438781738, -0.06579648, -0.06307537, -0.020586014
1016, 3215809045, -137.31143188476562, 69.04664611816406, 12.874043464660645, -0.06973428, -0.045644473, -0.059597015
1017, 3215825712, -137.33602905273438, 69.05110931396484, 12.782171249389648, -0.03375677, -0.059568997, -0.1298542
1018, 3215842379, -137.3463897705078, 69.05274200439453, 12.685637474060059, -0.014496491, -0.06961635, -0.17592716
1019, 3215859046, -137.3292999267578, 69.052490234375, 12.602073669433594, -0.0099000875, -0.043193433, -0.19095707
1020, 3215875713, -137.28814697265625, 69.04679870605469, 12.523588180541992, -0.027309734, -0.02858496, -0.18108177
1021, 3215892380, -137.25021362304688, 69.04286193847656, 12.447265625, -0.07370575, -0.020268155, -0.17984104
1022, 3215909047, -137.21908569335938, 69.04296112060547, 12.373583793640137, -0.13235077, -0.06537095, -0.18571949
1023, 3215925714, -137.20639038085938, 69.04216766357422, 12.300080299377441, -0.19937772, -0.06229507, -0.2592306
1024, 3215942381, -137.2100372314453, 69.03791809082031, 12.244065284729004, -0.2168989, -0.04574472, -0.29120255
1025, 3215959048, -137.23626708984375, 69.0318374633789, 12.177056312561035, -0.23306115, -0.027748687, -0.327178
1026, 3215975715, -137.2650146484375, 69.0250244140625, 12.109176635742188, -0.25604647, -0.0028325797, -0.3250246
1027, 3215992382, -137.303466796875, 69.01893615722656, 12.045516967773438, -0.28806102, -0.058877893, -0.29696655
1028, 3216009049, -137.35879516601562, 69.01761627197266, 12.006926536560059, -0.2679326, -0.14967187, -0.24592876
1029, 3216025716, -137.433837890625, 69.0228042602539, 11.995275497436523, -0.19830969, -0.21087329, -0.22684479
1030, 3216042383, -137.53640747070312, 69.0336685180664, 11.99414348602295, -0.13668029, -0.15941112, -0.18468666
1031, 3216059050, -137.64845275878906, 69.04512786865234, 11.98188304901123, -0.03150282, -0.09178545, -0.15754318
1032, 3216075717, -137.7357940673828, 69.05670166015625, 11.970396041870117, 0.025421834, -0.021979593, -0.17983818
1033, 3216092384, -137.80210876464844, 69.06324005126953, 11.965462684631348, 0.048622422, -0.08555808, -0.16912079
1034, 3216109051, -137.84750366210938, 69.06978607177734, 11.940398216247559, -0.025752688, -0.16192575, -0.11091709
1035, 3216125718, -137.86618041992188, 69.080810546875, 11.929137229919434, -0.13146926, -0.21328813, -0.113801956
1036, 3216142385, -137.8845672607422, 69.09552001953125, 11.924806594848633, -0.13045688, -0.2417648, -0.11885452
1037, 3216159052, -137.9036865234375, 69.11105346679688, 11.926133155822754, -0.09470397, -0.2249868, -0.10332489
1038, 3216175719, -137.93240356445312, 69.12970733642578, 11.9169921875, -0.033472043, -0.17374322, -0.07167435
1039, 3216192386, -137.94557189941406, 69.1482162475586, 11.898667335510254, 0.028616, -0.118749976, -0.04794693
1040, 3216209053, -137.9447784423828, 69.16633605957031, 11.868552207946777, 0.043047227, -0.076100126, -0.07334709
1041, 3216225720, -137.92173767089844, 69.18226623535156, 11.828354835510254, -0.012574922, -0.06818419, -0.15158749
1042, 3216242387, -137.88043212890625, 69.19107818603516, 11.75645637512207, -0.049710456, -0.031933185, -0.23797512
1043, 3216259054, -137.823486328125, 69.18804931640625, 11.668346405029297, -0.12275614, -0.0042736796, -0.2959013
1044, 3216275721, -137.7821807861328, 69.1789779663086, 11.554766654968262, -0.19154833, -0.049018737, -0.24158287
1045, 3216292388, -137.74673461914062, 69.17250061035156, 11.451360702514648, -0.26468062, -0.1183652, -0.1789074
1046, 3216309055, -137.7222442626953, 69.17159271240234, 11.385026931762695, -0.30719972, -0.19484697, -0.15980816
1047, 3216325722, -137.7306365966797, 69.17670440673828, 11.33673095703125, -0.23686232, -0.23343034, -0.13401699
1048, 3216342389, -137.75344848632812, 69.18685913085938, 11.311030387878418, -0.15454593, -0.18258426, -0.15172291
1049, 3216359056, -137.7648468017578, 69.2027587890625, 11.306090354919434, -0.045354772, -0.1281165, -0.17246628
1050, 3216375723, -137.7276611328125, 69.21636962890625, 11.317025184631348, 0.023551337, -0.085453026, -0.18883419
1051, 3216392390, -137.62933349609375, 69.22652435302734, 11.32669734954834, 0.06249213, -0.074031405, -0.15152645
1052, 3216409057, -137.52081298828125, 69.23709869384766, 11.302291870117188, 0.14422238, -0.12590072, -0.1468525
1053, 3216425724, -137.4000244140625, 69.24935913085938, 11.264678955078125, 0.16649646, -0.06002485, -0.26102066
