sep=,
DeviceTag:,Xsens_4,,,,,,,,,,,,,,,,,
FirmwareVersion:,2.2.1,,,,,,,,,,,,,,,,,
AppVersion:,2022.0.1,,,,,,,,,,,,,,,,,
SyncStatus:,Synced,,,,,,,,,,,,,,,,,
OutputRate:,60Hz,,,,,,,,,,,,,,,,,
FilterProfile:,General,,,,,,,,,,,,,,,,,
Measurement Mode:,Sensor fusion Mode - Complete (Euler),,,,,,,,,,,,,,,,,
StartTime:,2023-05-17 15:21:16.695 +0200,,,,,,,,,,,,,,,,,
© Xsens Technologies B. V. 2005-2023,,,,,,,,,,,,,,,,,,,

PacketCounter,SampleTimeFine,Euler_X,Euler_Y,Euler_Z,FreeAcc_X,FreeAcc_Y,FreeAcc_Z
1, 3198875373, -66.35157775878906, 57.32731628417969, 127.2991714477539, 0.03553736, -0.31738085, -0.18880272
2, 3198892040, -66.3665771484375, 57.317543029785156, 127.34229278564453, 0.017982945, -0.28691, -0.18980122
3, 3198908707, -66.34210205078125, 57.302433013916016, 127.39921569824219, 0.026054025, -0.236375, -0.21168232
4, 3198925374, -66.28950500488281, 57.28133773803711, 127.45848846435547, 0.034985926, -0.23500168, -0.19748116
5, 3198942041, -66.22284698486328, 57.25025939941406, 127.51422119140625, 0.027283613, -0.22763588, -0.13689137
6, 3198958708, -66.14301300048828, 57.2194938659668, 127.56999969482422, -0.0010272237, -0.16150805, -0.055695534
7, 3198975375, -66.05463409423828, 57.19785690307617, 127.61664581298828, -0.03702101, -0.05870886, 0.029044151
8, 3198992042, -65.95283508300781, 57.19404983520508, 127.66143798828125, -0.08004368, 0.028250305, 0.06486511
9, 3199008709, -65.82288360595703, 57.20070266723633, 127.72319030761719, -0.08912681, 0.053924795, -0.047449112
10, 3199025376, -65.67388916015625, 57.20938491821289, 127.81948852539062, -0.051040802, -0.040281225, -0.22977543
11, 3199042043, -65.52244567871094, 57.212772369384766, 127.95318603515625, 0.011907136, -0.18624994, -0.30395412
12, 3199058710, -65.41748046875, 57.211265563964844, 128.09439086914062, 0.032479197, -0.35097954, -0.24585247
13, 3199075377, -65.40228271484375, 57.201148986816406, 128.2107696533203, 0.068112105, -0.3850508, -0.18233395
14, 3199092044, -65.48320007324219, 57.17189407348633, 128.2842254638672, 0.029849596, -0.36041513, -0.06108761
15, 3199108711, -65.60631561279297, 57.127105712890625, 128.32919311523438, 0.009651387, -0.25837186, 0.01856327
16, 3199125378, -65.68347930908203, 57.08195495605469, 128.36233520507812, 0.037732188, -0.16002549, 0.040265083
17, 3199142045, -65.6701431274414, 57.03633499145508, 128.39898681640625, 0.027039438, -0.14495005, -0.018145561
18, 3199158712, -65.58872985839844, 56.99692153930664, 128.43003845214844, -0.009756634, -0.14865735, -0.10571861
19, 3199175379, -65.49664306640625, 56.96870803833008, 128.4314422607422, -0.061728492, -0.11788338, -0.083563805
20, 3199192046, -65.42460632324219, 56.952537536621094, 128.39938354492188, -0.09894114, -0.03623687, -0.065499306
21, 3199208713, -65.34320831298828, 56.938812255859375, 128.37049865722656, -0.14729552, 0.007527078, -0.056132317
22, 3199225380, -65.22657775878906, 56.93473815917969, 128.36915588378906, -0.117313035, -0.017066723, -0.05623722
23, 3199242047, -65.08816528320312, 56.93972396850586, 128.3964385986328, -0.10872263, -0.06733462, -0.06882954
24, 3199258714, -64.9671630859375, 56.95245361328125, 128.4400634765625, -0.06522858, -0.16189899, -0.15371895
25, 3199275381, -64.89250183105469, 56.96581268310547, 128.489990234375, 0.028026933, -0.25285634, -0.20894718
26, 3199292048, -64.87950897216797, 56.96839904785156, 128.53451538085938, 0.032534827, -0.33032712, -0.1875906
27, 3199308715, -64.9062728881836, 56.953529357910156, 128.59927368164062, 0.009579458, -0.41030726, -0.13539124
28, 3199325382, -64.95558166503906, 56.92375183105469, 128.69851684570312, 0.0133012, -0.4588563, -0.11959934
29, 3199342049, -64.98102569580078, 56.890316009521484, 128.8275604248047, -0.026452387, -0.35709018, -0.1254406
30, 3199358716, -64.9956283569336, 56.85349655151367, 128.9573516845703, -0.05820097, -0.22286265, -0.1531372
31, 3199375383, -65.00447845458984, 56.81343460083008, 129.08970642089844, 0.0056528524, -0.11000134, -0.12439442
32, 3199392050, -64.99942016601562, 56.77146530151367, 129.20925903320312, 0.00526563, 0.00856686, -0.062005043
33, 3199408717, -64.97441864013672, 56.73695373535156, 129.31130981445312, -0.017858211, -7.5530616E-4, -0.02166748
34, 3199425384, -64.89581298828125, 56.70976257324219, 129.4093017578125, 0.0015714638, -0.042972993, -0.03758335
35, 3199442051, -64.79684448242188, 56.68613052368164, 129.4800567626953, 0.018582182, -0.053270236, -0.083067894
36, 3199458718, -64.68204498291016, 56.67407989501953, 129.5308074951172, 0.047437817, -0.11566824, -0.12972355
37, 3199475385, -64.57505798339844, 56.669525146484375, 129.5703582763672, 0.07783167, -0.15039517, -0.15294647
38, 3199492052, -64.5340805053711, 56.665321350097656, 129.58314514160156, 0.049238034, -0.21908757, -0.11458683
39, 3199508719, -64.52052307128906, 56.665992736816406, 129.58352661132812, -0.010266481, -0.19683842, -0.021256447
40, 3199525386, -64.49375915527344, 56.66401672363281, 129.57521057128906, -0.060926337, -0.11093612, -0.0325222
41, 3199542053, -64.43060302734375, 56.66049575805664, 129.58697509765625, -0.085641794, -0.1475176, -0.12725449
42, 3199558720, -64.37045288085938, 56.6553955078125, 129.60125732421875, -0.056465477, -0.21744396, -0.204463
43, 3199575387, -64.34896850585938, 56.646446228027344, 129.6121826171875, -0.018519264, -0.24075656, -0.21159172
44, 3199592054, -64.3654556274414, 56.63148880004883, 129.62368774414062, -0.0077448776, -0.2540844, -0.15990639
45, 3199608721, -64.4028091430664, 56.61354446411133, 129.63751220703125, 0.011218088, -0.17364672, -0.08171749
46, 3199625388, -64.45999145507812, 56.594120025634766, 129.64109802246094, -0.012720765, -0.11595981, -0.0099954605
47, 3199642055, -64.52439880371094, 56.57524490356445, 129.6315155029297, -0.08106696, -0.066903576, 0.039969444
48, 3199658722, -64.56832885742188, 56.555381774902344, 129.61053466796875, -0.13366356, -0.07821858, 0.014474869
49, 3199675389, -64.550537109375, 56.53977966308594, 129.60423278808594, -0.15897109, -0.15873353, -0.0376091
50, 3199692056, -64.50389862060547, 56.52651596069336, 129.60337829589844, -0.15260835, -0.26420602, -0.101937294
51, 3199708723, -64.4852523803711, 56.52265548706055, 129.59686279296875, -0.14202106, -0.32305136, -0.21790314
52, 3199725390, -64.50560760498047, 56.5240364074707, 129.58880615234375, -0.077709325, -0.3095409, -0.28125858
53, 3199742057, -64.56771087646484, 56.51791000366211, 129.56375122070312, -0.012488213, -0.21809888, -0.23788452
54, 3199758724, -64.62771606445312, 56.51259994506836, 129.53408813476562, 0.044607136, -0.172292, -0.111255646
55, 3199775391, -64.6576156616211, 56.51311492919922, 129.50552368164062, 0.032797173, -0.1776381, -0.02404499
56, 3199792058, -64.66984558105469, 56.51176834106445, 129.47276306152344, 0.040651795, -0.18774965, -0.06157303
57, 3199808725, -64.67929077148438, 56.50301742553711, 129.4373016357422, 0.024233038, -0.23021603, -0.11781883
58, 3199825392, -64.69593811035156, 56.48686218261719, 129.4105682373047, 0.005316982, -0.289035, -0.08749485
59, 3199842059, -64.72962188720703, 56.46552658081055, 129.38662719726562, -0.0023691116, -0.28676772, -0.0073480606
60, 3199858726, -64.76243591308594, 56.44479751586914, 129.36053466796875, -0.08690089, -0.2071911, 0.012699127
61, 3199875393, -64.77701568603516, 56.42926025390625, 129.32379150390625, -0.06460479, -0.099187754, 0.014149666
62, 3199892060, -64.7542953491211, 56.42164611816406, 129.29281616210938, -0.039328333, -0.028225942, -0.050395012
63, 3199908727, -64.7174301147461, 56.42068099975586, 129.257568359375, -0.054071836, 0.0026762325, -0.11145306
64, 3199925394, -64.65961456298828, 56.4206657409668, 129.22332763671875, -0.05187448, 0.0062783114, -0.12534428
65, 3199942061, -64.58551025390625, 56.41826629638672, 129.19830322265625, -0.056413442, -0.11242394, -0.10822201
66, 3199958728, -64.51666259765625, 56.42014694213867, 129.1712646484375, -0.06332971, -0.19440871, -0.057688713
67, 3199975395, -64.47561645507812, 56.42476272583008, 129.13197326660156, -0.029554714, -0.2548474, -0.089357376
68, 3199992062, -64.46349334716797, 56.429527282714844, 129.07440185546875, 0.011377843, -0.24267188, -0.12466526
69, 3200008729, -64.45816040039062, 56.431671142578125, 129.01266479492188, 0.06103506, -0.2213151, -0.10920143
70, 3200025396, -64.43413543701172, 56.43913269042969, 128.96290588378906, 0.12544586, -0.22053246, -0.11923504
71, 3200042063, -64.38159942626953, 56.45066833496094, 128.9276885986328, 0.15208513, -0.17882875, -0.14417839
72, 3200058730, -64.30158233642578, 56.450199127197266, 128.93783569335938, 0.095659144, -0.18477291, -0.22349072
73, 3200075397, -64.20793914794922, 56.432552337646484, 129.00271606445312, 0.012112977, -0.18810621, -0.31136227
74, 3200092064, -64.14044189453125, 56.40675735473633, 129.09762573242188, 0.010345437, -0.14501269, -0.31688213
75, 3200108731, -64.12690734863281, 56.37281036376953, 129.19056701660156, 0.025203222, -0.06679629, -0.22369194
76, 3200125398, -64.15355682373047, 56.3333740234375, 129.26124572753906, 0.024935944, -0.019688306, -0.10076809
77, 3200142065, -64.17271423339844, 56.297218322753906, 129.3106689453125, 0.082000226, 0.037161153, -0.037830353
78, 3200158732, -64.14618682861328, 56.269447326660156, 129.3514404296875, 0.104198866, -0.033164907, -0.0657053
79, 3200175399, -64.07305908203125, 56.24077606201172, 129.4072723388672, 0.115477785, -0.21717876, -0.1199131
80, 3200192066, -63.99702072143555, 56.208518981933594, 129.47320556640625, 0.100537024, -0.3890531, -0.16157436
81, 3200208733, -63.9601936340332, 56.16105270385742, 129.53741455078125, 0.084865436, -0.41549975, -0.18296337
82, 3200225400, -63.955745697021484, 56.09585952758789, 129.60792541503906, -0.003906842, -0.35376915, -0.17102718
83, 3200242067, -63.936744689941406, 56.01651382446289, 129.68551635742188, -0.06256984, -0.2685565, -0.123389244
84, 3200258734, -63.86262512207031, 55.934932708740234, 129.76321411132812, -0.104272775, -0.16226432, -0.089577675
85, 3200275401, -63.73268127441406, 55.85589599609375, 129.82508850097656, -0.1335802, -0.13571355, -0.062408447
86, 3200292068, -63.58565902709961, 55.77382278442383, 129.8567657470703, -0.051366154, -0.15330787, -0.03155613
87, 3200308735, -63.43844985961914, 55.68855285644531, 129.86154174804688, 0.027395103, -0.22567639, 0.03308773
88, 3200325402, -63.295684814453125, 55.59950256347656, 129.83734130859375, 0.06598385, -0.23427612, 0.092414856
89, 3200342069, -63.14599609375, 55.511348724365234, 129.78897094726562, 0.12000542, -0.21606395, 0.110972404
90, 3200358736, -62.9864616394043, 55.42913055419922, 129.7349090576172, 0.12553678, -0.25194055, 0.048069954
91, 3200375403, -62.829593658447266, 55.35443115234375, 129.6905517578125, 0.08885105, -0.26799265, -0.0656414
92, 3200392070, -62.67852783203125, 55.287147521972656, 129.65122985839844, 0.089566395, -0.18188415, -0.16779995
93, 3200408737, -62.55501937866211, 55.21635818481445, 129.61109924316406, 0.06096682, -0.08791848, -0.22424316
94, 3200425404, -62.47182846069336, 55.148475646972656, 129.5723114013672, 0.03904601, -0.04528892, -0.22239876
95, 3200442071, -62.41557312011719, 55.08406448364258, 129.52508544921875, -0.009858542, 0.045679566, -0.18020916
96, 3200458738, -62.369598388671875, 55.030704498291016, 129.47117614746094, -0.11657838, 0.05630699, -0.12771511
97, 3200475405, -62.3218994140625, 54.992393493652344, 129.4129638671875, -0.177676, 0.022652647, -0.0886507
98, 3200492072, -62.254798889160156, 54.968101501464844, 129.3724365234375, -0.1873445, -0.023985678, -0.08063698
99, 3200508739, -62.18255615234375, 54.954036712646484, 129.3558349609375, -0.22121005, -0.11402687, -0.063067436
100, 3200525406, -62.14197540283203, 54.94609451293945, 129.35675048828125, -0.20640488, -0.17652634, -0.05534458
101, 3200542073, -62.16474151611328, 54.93925857543945, 129.36451721191406, -0.21161126, -0.17788413, -0.023036957
102, 3200558740, -62.22536087036133, 54.93702697753906, 129.3824920654297, -0.16356991, -0.049882896, -0.0037231445
103, 3200575407, -62.295108795166016, 54.93933868408203, 129.40689086914062, -0.11284665, 0.09108534, -0.0060253143
104, 3200592074, -62.33723068237305, 54.948699951171875, 129.42921447753906, -0.10330512, 0.14222693, -0.022535324
105, 3200608741, -62.33140563964844, 54.961891174316406, 129.46104431152344, -0.1347356, 0.12788339, -0.075816154
106, 3200625408, -62.27721405029297, 54.96701431274414, 129.51773071289062, -0.12318875, -0.05521217, -0.19934845
107, 3200642075, -62.1381721496582, 54.97196578979492, 129.67666625976562, -0.21961397, -0.21943575, -0.24206161
108, 3200658742, -62.19358444213867, 55.01255798339844, 129.83541870117188, -0.34767503, -0.70370626, -0.36058903
109, 3200675409, -62.54817581176758, 55.06034851074219, 129.89767456054688, 0.11323067, -1.0881563, -0.49455833
110, 3200692076, -62.87873077392578, 55.0822868347168, 129.97386169433594, 0.37346607, -0.6531546, -0.46479893
111, 3200708743, -63.03413009643555, 55.06691360473633, 130.08912658691406, 0.016131014, 0.279613, 0.1773014
112, 3200725410, -63.16619110107422, 54.994232177734375, 130.16937255859375, -0.17063993, 0.31418043, 0.5139189
113, 3200742077, -63.18825912475586, 54.9416389465332, 130.3511505126953, -0.22653224, -0.36215085, 0.29544926
114, 3200758744, -63.02609634399414, 54.92713928222656, 130.6679229736328, -0.06298531, -0.48666963, 0.06310654
115, 3200775411, -62.82630157470703, 54.93022155761719, 130.98590087890625, 0.18383609, -0.09474446, -0.047447205
116, 3200792078, -62.75290298461914, 54.93632888793945, 131.23056030273438, 0.23403849, -0.09147033, -0.18471909
117, 3200808745, -62.79319381713867, 54.916656494140625, 131.4112548828125, 0.0620558, 0.07015245, -0.14593315
118, 3200825412, -62.87392044067383, 54.88814926147461, 131.5546112060547, 0.010442609, 0.21300852, -0.13364601
119, 3200842079, -62.86787033081055, 54.882423400878906, 131.7201690673828, -0.031075956, 0.25976413, -0.07965469
120, 3200858746, -62.7916374206543, 54.89729309082031, 131.8763427734375, -0.06717375, 0.21892099, -0.0697937
121, 3200875413, -62.67916488647461, 54.91054153442383, 131.97596740722656, -0.11136315, 0.2699718, -0.05423832
122, 3200892080, -62.53528594970703, 54.92842102050781, 132.0001678466797, -0.19388793, 0.4595689, -0.034134865
123, 3200908747, -62.33970260620117, 54.96408462524414, 131.949462890625, -0.24423118, 0.68175673, -0.10859871
124, 3200925414, -62.088531494140625, 55.016845703125, 131.81015014648438, -0.38369158, 0.79215485, -0.27919197
125, 3200942081, -61.829837799072266, 55.112831115722656, 131.55068969726562, -0.48063582, 0.7450935, -0.37653542
126, 3200958748, -61.424922943115234, 55.19584655761719, 131.3990478515625, -0.15790294, 0.05032886, 0.19985294
127, 3200975415, -60.89311218261719, 55.30033874511719, 131.34983825683594, 0.121477894, -1.2078212, 0.015283585
128, 3200992082, -60.39697265625, 55.48820877075195, 131.34683227539062, -0.068945296, -1.5734857, -0.40272522
129, 3201008749, -60.75897979736328, 55.44860076904297, 131.1667022705078, -0.10985205, -1.1182572, 0.013695717
130, 3201025416, -61.290592193603516, 55.34634780883789, 130.95973205566406, 0.12213804, -0.062844805, 0.07841492
131, 3201042083, -61.41423416137695, 55.45619201660156, 130.91879272460938, 0.542526, 0.10690317, -0.3149271
132, 3201058750, -61.33412170410156, 55.634307861328125, 130.97364807128906, 0.4097116, -0.70314574, -0.10393715
133, 3201075417, -61.2360954284668, 55.67427062988281, 131.09466552734375, 0.1172036, -0.687241, 0.30151844
134, 3201092084, -61.22402572631836, 55.666996002197266, 131.09222412109375, 0.13918266, -0.061606977, 0.052755356
135, 3201108751, -61.34916305541992, 55.695640563964844, 130.9752960205078, 0.2489013, -0.13947007, -0.22693348
136, 3201125418, -61.51812744140625, 55.74378204345703, 130.8788299560547, 0.28149527, -0.4278132, -0.27340508
137, 3201142085, -61.62896728515625, 55.78903579711914, 130.84906005859375, 0.24094847, -0.2517147, -0.041754723
138, 3201158752, -61.66517639160156, 55.85100555419922, 130.85598754882812, 0.09293026, -0.059677232, 0.029388428
139, 3201175419, -61.69586944580078, 55.93571090698242, 130.8528289794922, -0.044726536, -0.089481175, -0.0088739395
140, 3201192086, -61.80167007446289, 56.016578674316406, 130.82334899902344, -0.12841998, -0.080242656, -0.006580353
141, 3201208753, -61.93416213989258, 56.08980941772461, 130.791259765625, -0.14719667, 0.003001332, 0.018198013
142, 3201225420, -62.03050994873047, 56.161231994628906, 130.7574005126953, -0.21349485, 0.020238092, -0.019429207
143, 3201242087, -62.105838775634766, 56.243831634521484, 130.70750427246094, -0.17131707, -0.10909695, -0.08219814
144, 3201258754, -62.194419860839844, 56.33340835571289, 130.63990783691406, -0.12421298, -0.2538871, -0.11747646
145, 3201275421, -62.32551193237305, 56.42573928833008, 130.55015563964844, -0.057096086, -0.35211396, -0.13962269
146, 3201292088, -62.50157928466797, 56.511959075927734, 130.43666076660156, -0.032152437, -0.32274044, -0.1624918
147, 3201308755, -62.67762756347656, 56.580745697021484, 130.3259735107422, 0.038220476, -0.27166337, -0.18751717
148, 3201325422, -62.81004333496094, 56.633174896240234, 130.24417114257812, 0.054022424, -0.23618245, -0.20562935
149, 3201342089, -62.90845489501953, 56.68022918701172, 130.1890411376953, 0.07966421, -0.25605974, -0.21886444
150, 3201358756, -62.9937629699707, 56.71754455566406, 130.14340209960938, 0.1396194, -0.24418145, -0.18686771
151, 3201375423, -63.071327209472656, 56.73744583129883, 130.10218811035156, 0.15016651, -0.24046147, -0.17900658
152, 3201392090, -63.125770568847656, 56.74374771118164, 130.07630920410156, 0.13524541, -0.20202889, -0.1322155
153, 3201408757, -63.17287063598633, 56.742584228515625, 130.05238342285156, 0.12068761, -0.12916417, -0.0942688
154, 3201425424, -63.21247100830078, 56.739444732666016, 130.0250701904297, 0.067131795, -0.082950294, -0.09565258
155, 3201442091, -63.2347526550293, 56.731361389160156, 129.9964599609375, -0.02557279, -0.058981474, -0.117230415
156, 3201458758, -63.267730712890625, 56.71284484863281, 129.96554565429688, -0.09395996, -0.10283417, -0.06230259
157, 3201475425, -63.34214401245117, 56.69413757324219, 129.9093780517578, -0.15221542, -0.10146382, -0.0067873
158, 3201492092, -63.43288803100586, 56.681739807128906, 129.81924438476562, -0.20299073, -0.028171685, 0.034781456
159, 3201508759, -63.52342987060547, 56.67515182495117, 129.69454956054688, -0.1925506, -0.014216653, -0.008058548
160, 3201525426, -63.598350524902344, 56.68028259277344, 129.5631103515625, -0.15405172, -0.09826484, -0.04804802
161, 3201542093, -63.644508361816406, 56.699180603027344, 129.43421936035156, -0.087621324, -0.16010797, -0.031227112
162, 3201558760, -63.662330627441406, 56.72508239746094, 129.314453125, -0.012309068, -0.21482646, -0.02649498
163, 3201575427, -63.66114807128906, 56.752742767333984, 129.2136688232422, 0.024343243, -0.21496655, -0.08063316
164, 3201592094, -63.65506362915039, 56.78029251098633, 129.1462860107422, 0.03596969, -0.18281226, -0.14357758
165, 3201608761, -63.67564010620117, 56.80859375, 129.1036834716797, 0.039289918, -0.14217883, -0.18618965
166, 3201625428, -63.72075653076172, 56.83360290527344, 129.08151245117188, 0.039680682, -0.13492566, -0.19588566
167, 3201642095, -63.773189544677734, 56.851226806640625, 129.08383178710938, 0.03545456, -0.1389142, -0.22171974
168, 3201658762, -63.82534408569336, 56.858245849609375, 129.11184692382812, 0.029396856, -0.16068593, -0.23799324
169, 3201675429, -63.90172576904297, 56.8570671081543, 129.1466064453125, 0.036402844, -0.15165074, -0.22291851
170, 3201692096, -64.00294494628906, 56.84808349609375, 129.1759796142578, 0.06785202, -0.13069199, -0.15021515
171, 3201708763, -64.11260223388672, 56.83055114746094, 129.18997192382812, 0.03170421, -0.050675917, -0.078448296
172, 3201725430, -64.21214294433594, 56.80305862426758, 129.19471740722656, -0.018647546, -0.014960448, 0.016303062
173, 3201742097, -64.29891967773438, 56.77778625488281, 129.1783905029297, -0.107084446, -0.044245396, 0.13595772
174, 3201758764, -64.37921905517578, 56.77676773071289, 129.12986755371094, -0.17732064, -0.070745535, 0.18521118
175, 3201775431, -64.47000885009766, 56.809391021728516, 129.03196716308594, -0.19434454, -0.099321336, 0.12619591
176, 3201792098, -64.58010864257812, 56.86639404296875, 128.88232421875, -0.19932954, -0.06473161, 0.06128311
177, 3201808765, -64.69979095458984, 56.93497085571289, 128.69583129882812, -0.14054751, -0.063593015, -0.002325058
178, 3201825432, -64.8084487915039, 57.011470794677734, 128.4960479736328, -0.10106236, -0.097908735, -0.101919174
179, 3201842099, -64.91233825683594, 57.095821380615234, 128.298828125, -0.03641677, -0.13203475, -0.16872883
180, 3201858766, -65.02058410644531, 57.179561614990234, 128.11944580078125, -0.008617542, -0.19134346, -0.21674442
181, 3201875433, -65.13220977783203, 57.25984191894531, 127.96986389160156, 0.05909015, -0.22831726, -0.23751068
182, 3201892100, -65.24356842041016, 57.33328628540039, 127.84231567382812, 0.07178745, -0.22075407, -0.25273895
183, 3201908767, -65.3513412475586, 57.39711380004883, 127.7347183227539, 0.15242681, -0.21161634, -0.2759552
184, 3201925434, -65.463134765625, 57.44438552856445, 127.641357421875, 0.17479731, -0.26223627, -0.31589794
185, 3201942101, -65.58132934570312, 57.468448638916016, 127.5743179321289, 0.20037197, -0.2797134, -0.34042358
186, 3201958768, -65.69776916503906, 57.469730377197266, 127.54342651367188, 0.20056123, -0.28196582, -0.28949547
187, 3201975435, -65.81136322021484, 57.4583740234375, 127.53595733642578, 0.19079685, -0.2555876, -0.1878109
188, 3201992102, -65.90249633789062, 57.44255447387695, 127.54579162597656, 0.10467106, -0.22774729, -0.11403465
189, 3202008769, -65.9566421508789, 57.42066192626953, 127.57382202148438, 0.07848944, -0.18810011, -0.086364746
190, 3202025436, -65.97660827636719, 57.39519500732422, 127.6140365600586, 8.271935E-4, -0.18699569, -0.03330326
191, 3202042103, -65.98993682861328, 57.37187576293945, 127.64066314697266, -0.041858625, -0.14934376, -0.02084446
192, 3202058770, -66.00117492675781, 57.350406646728516, 127.64569091796875, -0.09215289, -0.12489144, -0.034496307
193, 3202075437, -65.99588775634766, 57.330421447753906, 127.63941955566406, -0.11878496, -0.12750766, -0.057271957
194, 3202092104, -65.9808578491211, 57.31337356567383, 127.62312316894531, -0.12841369, -0.16905653, -0.052921295
195, 3202108771, -65.96399688720703, 57.30089569091797, 127.59471130371094, -0.08848784, -0.18138568, -0.082696915
196, 3202125438, -65.94124603271484, 57.28701400756836, 127.55814361572266, -0.100665934, -0.14937454, -0.061961174
197, 3202142105, -65.9349365234375, 57.275238037109375, 127.50761413574219, -0.082992435, -0.0995648, -0.075398445
198, 3202158772, -65.95027160644531, 57.269256591796875, 127.45072937011719, -0.099277526, -0.023468357, -0.09312916
199, 3202175439, -65.98014068603516, 57.26749801635742, 127.39010620117188, -0.10804893, 0.047880888, -0.08077812
200, 3202192106, -66.00867462158203, 57.27134704589844, 127.33180236816406, -0.13140371, 0.09818069, -0.08700752
201, 3202208773, -66.02123260498047, 57.28073501586914, 127.2889404296875, -0.104159884, 0.08638513, -0.09539986
202, 3202225440, -66.02262115478516, 57.297916412353516, 127.25780487060547, -0.09762138, 0.016729722, -0.11350536
203, 3202242107, -66.04393005371094, 57.32748031616211, 127.23503112792969, -0.071174264, -0.035601478, -0.1470871
204, 3202258774, -66.09806060791016, 57.36376190185547, 127.21640014648438, -0.05591368, -0.0833496, -0.14277363
205, 3202275441, -66.17140197753906, 57.40507507324219, 127.2091064453125, -0.016541999, -0.07103862, -0.11886978
206, 3202292108, -66.25476837158203, 57.451011657714844, 127.20480346679688, 0.039638516, -0.06732372, -0.1221571
207, 3202308775, -66.32303619384766, 57.49867248535156, 127.21104431152344, 0.019398425, -0.08559049, -0.13387585
208, 3202325442, -66.37804412841797, 57.54351806640625, 127.22438049316406, 0.04337915, -0.14039241, -0.1425333
209, 3202342109, -66.4287109375, 57.58366012573242, 127.24067687988281, 0.06692869, -0.16817953, -0.15372181
210, 3202358776, -66.48089599609375, 57.615875244140625, 127.25894165039062, 0.08050653, -0.20484695, -0.19160366
211, 3202375443, -66.53823852539062, 57.6356086730957, 127.28398895263672, 0.045094773, -0.23905806, -0.19035435
212, 3202392110, -66.60790252685547, 57.64871597290039, 127.30902862548828, 0.063581824, -0.25596097, -0.17028332
213, 3202408777, -66.68043518066406, 57.659725189208984, 127.32551574707031, 0.011879937, -0.20729592, -0.1518135
214, 3202425444, -66.74512481689453, 57.665130615234375, 127.32689666748047, -0.004691076, -0.13449205, -0.107504845
215, 3202442111, -66.77725219726562, 57.66481018066406, 127.32499694824219, -0.009456931, -0.12340938, -0.07593918
216, 3202458778, -66.75434875488281, 57.66757583618164, 127.3358154296875, -0.049900442, -0.14079371, -0.032348633
217, 3202475445, -66.70156860351562, 57.67938995361328, 127.34820556640625, -0.07702346, -0.14531633, -0.06401253
218, 3202492112, -66.65694427490234, 57.69386291503906, 127.3517074584961, -0.04654276, -0.138891, -0.12423706
219, 3202508779, -66.6494369506836, 57.70693588256836, 127.34977722167969, -0.07996806, -0.14503035, -0.17088604
220, 3202525446, -66.67228698730469, 57.719940185546875, 127.3502426147461, -0.04196387, -0.07507124, -0.14583302
221, 3202542113, -66.70660400390625, 57.72983169555664, 127.35106658935547, -0.034029987, -0.09166529, -0.1303091
222, 3202558780, -66.736572265625, 57.74150466918945, 127.35050201416016, -0.010688208, -0.12354058, -0.12624073
223, 3202575447, -66.7326889038086, 57.75596237182617, 127.3572769165039, 0.051871657, -0.17842461, -0.15888691
224, 3202592114, -66.6892318725586, 57.7665901184082, 127.3746109008789, 0.12323039, -0.22585638, -0.20759773
225, 3202608781, -66.6454849243164, 57.77197265625, 127.40059661865234, 0.14712249, -0.25634828, -0.22562218
226, 3202625448, -66.6462631225586, 57.77671432495117, 127.40509033203125, 0.13039991, -0.21934603, -0.20786572
227, 3202642115, -66.6885757446289, 57.77460479736328, 127.38028717041016, 0.144125, -0.104449674, -0.17003536
228, 3202658782, -66.73941802978516, 57.76920700073242, 127.34102630615234, 0.11934964, -0.044464327, -0.080085754
229, 3202675449, -66.74498748779297, 57.76795959472656, 127.32390594482422, 0.05704678, -0.055964507, -0.028093338
230, 3202692116, -66.71585083007812, 57.772369384765625, 127.3156967163086, 0.016445901, -0.08034972, 2.193451E-5
231, 3202708783, -66.68624877929688, 57.77778625488281, 127.30529022216797, -0.042723775, -0.16731906, -0.022146225
232, 3202725450, -66.68115997314453, 57.78237533569336, 127.2904281616211, -0.08208899, -0.18811598, -0.078131676
233, 3202742117, -66.70557403564453, 57.77765655517578, 127.27198791503906, -0.117069356, -0.1340895, -0.10628986
234, 3202758784, -66.74297332763672, 57.771995544433594, 127.2513198852539, -0.14827064, -0.084651954, -0.10813713
235, 3202775451, -66.77169799804688, 57.77288818359375, 127.22635650634766, -0.15549605, -0.036503576, -0.10552788
236, 3202792118, -66.7862548828125, 57.780948638916016, 127.20352935791016, -0.20908073, -0.0029212586, -0.10862827
237, 3202808785, -66.78695678710938, 57.79361343383789, 127.18890380859375, -0.1719605, -0.033290636, -0.11584473
238, 3202825452, -66.764892578125, 57.81031799316406, 127.1904067993164, -0.11605156, -0.099113576, -0.1268158
239, 3202842119, -66.72957611083984, 57.82438278198242, 127.21074676513672, -0.09504309, -0.19240902, -0.13841248
240, 3202858786, -66.72187042236328, 57.84014129638672, 127.23049926757812, -0.020501237, -0.26927146, -0.19219398
241, 3202875453, -66.75482177734375, 57.85702896118164, 127.24156188964844, 0.021665655, -0.2653821, -0.1873331
242, 3202892120, -66.80599212646484, 57.86433029174805, 127.25267028808594, 0.06917565, -0.19418767, -0.15917301
243, 3202908787, -66.84031677246094, 57.86341857910156, 127.27766418457031, 0.05172062, -0.122865856, -0.13292599
244, 3202925454, -66.8408432006836, 57.861572265625, 127.31524658203125, 0.035533533, -0.11299737, -0.11283302
245, 3202942121, -66.80049133300781, 57.86254119873047, 127.364013671875, 0.015478342, -0.14658745, -0.11174679
246, 3202958788, -66.75010681152344, 57.86112976074219, 127.41820526123047, 0.008104873, -0.1869661, -0.15207386
247, 3202975455, -66.73078918457031, 57.85624313354492, 127.4660415649414, -8.218152E-4, -0.19596995, -0.16016006
248, 3202992122, -66.7370834350586, 57.847652435302734, 127.50457763671875, 2.8212921E-4, -0.18231644, -0.1520977
249, 3203008789, -66.74089050292969, 57.83184814453125, 127.5448226928711, -0.004217885, -0.14201593, -0.14729214
250, 3203025456, -66.72779083251953, 57.81583023071289, 127.58583068847656, 0.0015251888, -0.15346232, -0.14433575
251, 3203042123, -66.69867706298828, 57.803688049316406, 127.6241455078125, -0.0023031335, -0.17551339, -0.10854149
252, 3203058790, -66.68377685546875, 57.790977478027344, 127.64469146728516, -0.011688819, -0.17858613, -0.058945656
253, 3203075457, -66.6856918334961, 57.77849578857422, 127.652099609375, -0.052162614, -0.16583611, -0.03753853
254, 3203092124, -66.6881103515625, 57.76719284057617, 127.65792083740234, -0.039229862, -0.12460501, -0.03989029
255, 3203108791, -66.68244171142578, 57.76441192626953, 127.66175842285156, -0.053942937, -0.067879654, -0.0816679
256, 3203125458, -66.66962432861328, 57.768714904785156, 127.65702819824219, -0.055947416, -0.04623153, -0.10988331
257, 3203142125, -66.66500854492188, 57.77365493774414, 127.63114166259766, -0.033746824, -0.060900073, -0.1111393
258, 3203158792, -66.6704330444336, 57.776920318603516, 127.59400177001953, 0.00581828, -0.07001873, -0.13034153
259, 3203175459, -66.68141174316406, 57.77653503417969, 127.55359649658203, -0.016649159, -0.07984676, -0.11176491
260, 3203192126, -66.69042205810547, 57.773109436035156, 127.51153564453125, 9.926872E-4, -0.123203, -0.08936882
261, 3203208793, -66.68994903564453, 57.777896881103516, 127.4671630859375, 0.011225533, -0.12711975, -0.10310459
262, 3203225460, -66.67317199707031, 57.78644561767578, 127.42499542236328, 0.039200734, -0.10769625, -0.16773891
263, 3203242127, -66.64942169189453, 57.79290008544922, 127.39764404296875, 0.08195311, -0.16307458, -0.18256378
264, 3203258794, -66.64969635009766, 57.80363082885742, 127.37670135498047, 0.05220113, -0.19688337, -0.14684868
265, 3203275461, -66.66079711914062, 57.82115173339844, 127.35725402832031, 0.064198144, -0.19345583, -0.1205225
266, 3203292128, -66.67017364501953, 57.83732604980469, 127.35150146484375, 0.050153792, -0.16149728, -0.12689781
267, 3203308795, -66.66812896728516, 57.849491119384766, 127.37213897705078, 0.033314213, -0.17885646, -0.13664246
268, 3203325462, -66.65257263183594, 57.85383987426758, 127.42010498046875, 0.028550943, -0.17803594, -0.14971066
269, 3203342129, -66.65364074707031, 57.857364654541016, 127.4722900390625, 0.019054536, -0.12299951, -0.14274311
270, 3203358796, -66.67724609375, 57.86526870727539, 127.52030181884766, 0.062191125, -0.0790795, -0.1507864
271, 3203375463, -66.69913482666016, 57.87482833862305, 127.56778717041016, 0.01637303, -0.028739136, -0.13578129
272, 3203392130, -66.69953918457031, 57.88124465942383, 127.61290740966797, 0.0057192217, 0.004623254, -0.12006664
273, 3203408797, -66.68966674804688, 57.88653564453125, 127.650634765625, 0.002687967, -0.06950951, -0.12690163
274, 3203425464, -66.67920684814453, 57.89641189575195, 127.68284606933594, -0.03252647, -0.16982107, -0.09874344
275, 3203442131, -66.69075775146484, 57.909820556640625, 127.69649505615234, -0.005205952, -0.21323399, -0.079811096
276, 3203458798, -66.71146392822266, 57.922847747802734, 127.69371795654297, -0.01343521, -0.17942436, -0.07063484
277, 3203475465, -66.74232482910156, 57.93246841430664, 127.6839828491211, -0.025604652, -0.09314824, -0.07799053
278, 3203492132, -66.758056640625, 57.93895721435547, 127.67182159423828, -0.040583137, -0.05405074, -0.092567444
279, 3203508799, -66.71807098388672, 57.945281982421875, 127.67443084716797, -0.03552424, 0.00369886, -0.10294628
280, 3203525466, -66.64533233642578, 57.95400619506836, 127.6898422241211, -0.03537594, -0.077749595, -0.14859009
281, 3203542133, -66.57929992675781, 57.966758728027344, 127.71576690673828, -0.008630924, -0.1487827, -0.1982708
282, 3203558800, -66.55797576904297, 57.983245849609375, 127.73451232910156, 0.009884595, -0.17590667, -0.2016964
283, 3203575467, -66.57422637939453, 57.997745513916016, 127.7416000366211, 0.05628467, -0.16889939, -0.16662407
284, 3203592134, -66.59244537353516, 58.0091667175293, 127.7422866821289, 0.056427535, -0.09326039, -0.12950039
285, 3203608801, -66.58299255371094, 58.016693115234375, 127.75557708740234, 0.08170444, -0.05902614, -0.1560936
286, 3203625468, -66.54515075683594, 58.01712417602539, 127.77849578857422, 0.08742081, -0.12410414, -0.18310642
287, 3203642135, -66.4903335571289, 58.010826110839844, 127.8145751953125, 0.09362196, -0.16990103, -0.23183441
288, 3203658802, -66.45491790771484, 57.99330139160156, 127.85028076171875, 0.07939306, -0.2040082, -0.16505527
289, 3203675469, -66.44781494140625, 57.96929931640625, 127.87175750732422, 0.036475666, -0.18515009, -0.0703516
290, 3203692136, -66.4390869140625, 57.94475173950195, 127.8830795288086, -0.047667406, -0.09183186, -0.022997856
291, 3203708803, -66.40474700927734, 57.91838455200195, 127.89778137207031, -0.09008064, -0.05005662, -0.015656471
292, 3203725470, -66.32908630371094, 57.89524459838867, 127.92843627929688, -0.13712925, -0.058948282, -0.062939644
293, 3203742137, -66.22158813476562, 57.874732971191406, 127.98217010498047, -0.15847544, -0.0779155, -0.11791992
294, 3203758804, -66.12102508544922, 57.860836029052734, 128.03955078125, -0.15489642, -0.110889696, -0.13668823
295, 3203775471, -66.04963684082031, 57.85497283935547, 128.08816528320312, -0.13158461, -0.120248966, -0.12450218
296, 3203792138, -65.99954986572266, 57.85511779785156, 128.1300811767578, -0.0807296, -0.12296794, -0.095713615
297, 3203808805, -65.94515991210938, 57.85845947265625, 128.181396484375, -0.018748533, -0.10489832, -0.13869762
298, 3203825472, -65.88457489013672, 57.86041259765625, 128.2443389892578, 0.02265991, -0.12394134, -0.18300533
299, 3203842139, -65.82466125488281, 57.85881423950195, 128.31930541992188, 0.04591143, -0.16840781, -0.17414665
300, 3203858806, -65.79695129394531, 57.855255126953125, 128.3801727294922, 0.053871218, -0.17618003, -0.1409626
301, 3203875473, -65.79496002197266, 57.846961975097656, 128.4249725341797, 0.02615075, -0.13415337, -0.08319855
302, 3203892140, -65.79642486572266, 57.83401107788086, 128.4597930908203, -0.002902882, -0.08570453, -0.06974125
303, 3203908807, -65.76673126220703, 57.82201385498047, 128.49295043945312, -0.032274432, -0.050352383, -0.09484863
304, 3203925474, -65.69258880615234, 57.809547424316406, 128.5377960205078, -0.04447106, -0.121005334, -0.10736656
305, 3203942141, -65.60236358642578, 57.79762649536133, 128.582275390625, -0.06355566, -0.2038475, -0.14328384
306, 3203958808, -65.51543426513672, 57.7840576171875, 128.62405395507812, -0.06419545, -0.26912442, -0.17775154
307, 3203975475, -65.43742370605469, 57.762691497802734, 128.66168212890625, -0.038097225, -0.27357322, -0.17490005
308, 3203992142, -65.36456298828125, 57.73630142211914, 128.70155334472656, -0.0051150243, -0.26449382, -0.1667366
309, 3204008809, -65.28518676757812, 57.709320068359375, 128.74632263183594, -0.008438452, -0.22451454, -0.14026165
310, 3204025476, -65.2004623413086, 57.67949295043945, 128.79347229003906, 0.05116716, -0.18055013, -0.14797974
311, 3204042143, -65.11393737792969, 57.64834213256836, 128.84547424316406, 0.03926726, -0.16471888, -0.10221863
312, 3204058810, -65.03308868408203, 57.618282318115234, 128.8927459716797, 0.013582324, -0.111473955, -0.06260395
313, 3204075477, -64.9616470336914, 57.58808517456055, 128.93226623535156, 0.014015265, -0.06568551, -0.06010914
314, 3204092144, -64.89606475830078, 57.55827713012695, 128.9678955078125, -0.00501978, -0.026627379, -0.10310936
315, 3204108811, -64.81168365478516, 57.529781341552734, 129.01943969726562, -0.012353505, -0.043592457, -0.09587765
316, 3204125478, -64.7305908203125, 57.502140045166016, 129.07847595214844, -0.006072973, -0.057701323, -0.094347
317, 3204142145, -64.66697692871094, 57.47822952270508, 129.13197326660156, -0.056259397, -0.08365118, -0.10360241
318, 3204158812, -64.6163330078125, 57.45701217651367, 129.17913818359375, -0.07587448, -0.10384524, -0.06727123
319, 3204175479, -64.57172393798828, 57.43942642211914, 129.2205352783203, -0.08757052, -0.111404106, -0.053219795
320, 3204192146, -64.53419494628906, 57.424583435058594, 129.2509002685547, -0.09945882, -0.10640748, -0.052732468
321, 3204208813, -64.49882507324219, 57.418312072753906, 129.27365112304688, -0.115351364, -0.09721015, -0.05427456
322, 3204225480, -64.4451904296875, 57.41612243652344, 129.3021240234375, -0.083989225, -0.095717356, -0.07567787
323, 3204242147, -64.3896255493164, 57.41645050048828, 129.3320770263672, -0.057763442, -0.12577201, -0.093961716
324, 3204258814, -64.36975860595703, 57.42144775390625, 129.34063720703125, -0.0035463125, -0.13815917, -0.08796978
325, 3204275481, -64.36978149414062, 57.43376922607422, 129.3241729736328, 0.04904996, -0.11490684, -0.108076096
326, 3204292148, -64.36347198486328, 57.44501876831055, 129.30389404296875, 0.08692679, -0.102055624, -0.16399384
327, 3204308815, -64.34538269042969, 57.45296859741211, 129.29412841796875, 0.14589171, -0.15345459, -0.16911793
328, 3204325482, -64.32170867919922, 57.459163665771484, 129.29730224609375, 0.12078946, -0.19621018, -0.14579487
329, 3204342149, -64.3155517578125, 57.45891189575195, 129.30584716796875, 0.08483323, -0.20158486, -0.118421555
330, 3204358816, -64.33380126953125, 57.456974029541016, 129.31143188476562, 0.029245147, -0.16135769, -0.11694336
331, 3204375483, -64.36151885986328, 57.45691680908203, 129.31675720214844, -0.034433845, -0.08230535, -0.09492016
332, 3204392150, -64.38642883300781, 57.46234130859375, 129.31268310546875, -0.0463844, -0.017106788, -0.06378937
333, 3204408817, -64.39385986328125, 57.473506927490234, 129.30125427246094, -0.046027884, -0.029074732, -0.04517269
334, 3204425484, -64.3931884765625, 57.488014221191406, 129.28089904785156, -0.080032654, -0.107105, -0.06750107
335, 3204442151, -64.40547180175781, 57.50334167480469, 129.25804138183594, -0.055547692, -0.13585888, -0.1269207
336, 3204458818, -64.42587280273438, 57.516014099121094, 129.24742126464844, -0.013284562, -0.17944598, -0.14126873
337, 3204475485, -64.45266723632812, 57.5288200378418, 129.24720764160156, -0.030727668, -0.16564009, -0.14071846
338, 3204492152, -64.49433898925781, 57.54438018798828, 129.24227905273438, -0.035205122, -0.1557313, -0.13515091
339, 3204508819, -64.52767944335938, 57.563079833984375, 129.23802185058594, -0.013644712, -0.12406461, -0.10978317
340, 3204525486, -64.547607421875, 57.57886505126953, 129.2379608154297, -0.012270023, -0.089571975, -0.110497475
341, 3204542153, -64.55455017089844, 57.5979118347168, 129.24256896972656, 0.0100312615, -0.087892614, -0.11290455
342, 3204558820, -64.55569458007812, 57.61927795410156, 129.2500457763672, 0.0089963125, -0.12847799, -0.11144447
343, 3204575487, -64.5760498046875, 57.63642120361328, 129.25457763671875, 0.014706859, -0.12639713, -0.11007309
344, 3204592154, -64.61089324951172, 57.64564895629883, 129.2571563720703, -0.028224066, -0.11673035, -0.088336945
345, 3204608821, -64.64836120605469, 57.65104675292969, 129.2616729736328, -0.07106782, -0.07424525, -0.07154369
346, 3204625488, -64.68115997314453, 57.65724182128906, 129.26873779296875, -0.11870347, -0.064449795, -0.06681919
347, 3204642155, -64.71807098388672, 57.66680908203125, 129.2701873779297, -0.1355313, -0.066416875, -0.089995384
348, 3204658822, -64.75083923339844, 57.68573760986328, 129.2576904296875, -0.09636318, -0.041957907, -0.096759796
349, 3204675489, -64.77833557128906, 57.705631256103516, 129.238525390625, -0.11446165, -0.05107338, -0.12174988
350, 3204692156, -64.80574035644531, 57.728309631347656, 129.21734619140625, -0.057705723, -0.10412993, -0.10602665
351, 3204708823, -64.8241958618164, 57.753238677978516, 129.19886779785156, -0.060638983, -0.1810945, -0.10175705
352, 3204725490, -64.84194946289062, 57.78131103515625, 129.18002319335938, -0.0062628607, -0.22534215, -0.12213135
353, 3204742157, -64.86809539794922, 57.80896759033203, 129.16419982910156, 0.030257424, -0.26743975, -0.14347935
354, 3204758824, -64.89944458007812, 57.8324089050293, 129.1520538330078, 0.08396561, -0.25668824, -0.17202663
355, 3204775491, -64.931396484375, 57.849327087402344, 129.14651489257812, 0.101391025, -0.21040852, -0.17144299
356, 3204792158, -64.97930908203125, 57.859256744384766, 129.13723754882812, 0.1017109, -0.21528941, -0.17040253
357, 3204808825, -65.03533935546875, 57.863731384277344, 129.12913513183594, 0.08273274, -0.16068779, -0.12800407
358, 3204825492, -65.0916976928711, 57.86052703857422, 129.11463928222656, 0.03153898, -0.096687794, -0.0734787
359, 3204842159, -65.13236236572266, 57.857330322265625, 129.093505859375, -0.024449384, -0.0886135, -0.08123207
360, 3204858826, -65.13961029052734, 57.853240966796875, 129.08090209960938, -0.07013374, -0.08900381, -0.076660156
361, 3204875493, -65.133544921875, 57.85028076171875, 129.06881713867188, -0.049311414, -0.1289497, -0.12383938
362, 3204892160, -65.1379623413086, 57.84690856933594, 129.0543212890625, -0.06869978, -0.1421662, -0.13943672
363, 3204908827, -65.16580963134766, 57.846744537353516, 129.02243041992188, -0.049136084, -0.12921217, -0.1645441
364, 3204925494, -65.20308685302734, 57.84164047241211, 128.98448181152344, -0.041360445, -0.0733717, -0.17481422
365, 3204942161, -65.23176574707031, 57.833984375, 128.9510040283203, -0.009054734, -0.097930625, -0.1411686
366, 3204958828, -65.23333740234375, 57.826778411865234, 128.9248504638672, -0.003257897, -0.14048591, -0.10134983
367, 3204975495, -65.2240982055664, 57.82001876831055, 128.90432739257812, 0.012135762, -0.16120325, -0.07108784
368, 3204992162, -65.2329330444336, 57.81208801269531, 128.88485717773438, 0.021082707, -0.20122816, -0.09417629
369, 3205008829, -65.26814270019531, 57.80545425415039, 128.86148071289062, 0.010971427, -0.13163465, -0.091986656
370, 3205025496, -65.32479095458984, 57.80049514770508, 128.83035278320312, -0.00737196, -0.052086733, -0.081129074
371, 3205042163, -65.36652374267578, 57.7947998046875, 128.80567932128906, -0.015615327, 0.0034736148, -0.0832119
372, 3205058830, -65.37126922607422, 57.79064178466797, 128.7951202392578, -0.051665004, -4.6440403E-4, -0.106604576
373, 3205075497, -65.35794830322266, 57.78800964355469, 128.7992706298828, -0.040640507, -0.060961258, -0.1391325
374, 3205092164, -65.36369323730469, 57.7887077331543, 128.80001831054688, -0.04210663, -0.15187985, -0.14407063
375, 3205108831, -65.3989486694336, 57.79098129272461, 128.79458618164062, -0.03928707, -0.19635938, -0.10652828
376, 3205125498, -65.45470428466797, 57.79404830932617, 128.77609252929688, -0.049062714, -0.16799368, -0.09794712
377, 3205142165, -65.50530242919922, 57.80058670043945, 128.75198364257812, -0.05065508, -0.09953496, -0.10213089
378, 3205158832, -65.52265167236328, 57.803462982177734, 128.7304229736328, -0.017844325, -0.05014552, -0.14078617
379, 3205175499, -65.50579071044922, 57.80500411987305, 128.72467041015625, 0.02012297, -0.063452475, -0.16687489
380, 3205192166, -65.47608947753906, 57.809532165527344, 128.73052978515625, 0.040982485, -0.11203126, -0.19268608
381, 3205208833, -65.467041015625, 57.813926696777344, 128.73040771484375, 0.07895374, -0.14722195, -0.17288971
382, 3205225500, -65.47262573242188, 57.81155014038086, 128.73048400878906, 0.08603299, -0.14447515, -0.14001846
383, 3205242167, -65.4876937866211, 57.801998138427734, 128.72988891601562, 0.08173997, -0.13300276, -0.1101284
384, 3205258834, -65.49354553222656, 57.79367446899414, 128.7375030517578, 0.07592407, -0.1036348, -0.10267639
385, 3205275501, -65.49229431152344, 57.7868766784668, 128.74951171875, 0.039983884, -0.08651583, -0.086276054
386, 3205292168, -65.4937744140625, 57.781883239746094, 128.76193237304688, -8.888018E-4, -0.0837084, -0.08042812
387, 3205308835, -65.50779724121094, 57.78058624267578, 128.76283264160156, -0.027737288, -0.0552248, -0.09260273
388, 3205325502, -65.52849578857422, 57.78143310546875, 128.75782775878906, -0.081172235, -0.029331103, -0.09152317
389, 3205342169, -65.55475616455078, 57.78184509277344, 128.7504425048828, -0.1069022, -0.035672948, -0.10643482
390, 3205358836, -65.5748291015625, 57.78619384765625, 128.74063110351562, -0.103713445, -0.050485317, -0.08954334
391, 3205375503, -65.58259582519531, 57.793216705322266, 128.73536682128906, -0.08395866, -0.055458147, -0.10087776
392, 3205392170, -65.58728790283203, 57.80451202392578, 128.72781372070312, -0.05394988, -0.0899315, -0.099598885
393, 3205408837, -65.58795166015625, 57.8138427734375, 128.72288513183594, -0.0131013375, -0.14122021, -0.12529182
394, 3205425504, -65.57575988769531, 57.82077407836914, 128.724609375, 0.034764674, -0.15234478, -0.14469719
395, 3205442171, -65.54724884033203, 57.82677459716797, 128.734619140625, 0.07029762, -0.1839097, -0.17489147
396, 3205458838, -65.52924346923828, 57.831581115722656, 128.74632263183594, 0.06661808, -0.17635821, -0.18567753
397, 3205475505, -65.54268646240234, 57.82944869995117, 128.7554168701172, 0.06934719, -0.14763045, -0.17126274
398, 3205492172, -65.56815338134766, 57.819942474365234, 128.7633056640625, 0.046661485, -0.091403276, -0.12724304
399, 3205508839, -65.57787322998047, 57.812286376953125, 128.7720489501953, -1.3577015E-4, -0.044609275, -0.12844467
400, 3205525506, -65.55948638916016, 57.80797576904297, 128.7860870361328, 0.0023443296, -0.0770857, -0.12847042
401, 3205542173, -65.52564239501953, 57.80230712890625, 128.80545043945312, -0.0015454245, -0.14894585, -0.14258957
402, 3205558840, -65.49665832519531, 57.791404724121094, 128.82589721679688, 0.030404495, -0.19031946, -0.16544437
403, 3205575507, -65.4892349243164, 57.774078369140625, 128.833984375, 0.024862897, -0.1656952, -0.17541122
404, 3205592174, -65.49822998046875, 57.74997329711914, 128.83505249023438, 0.02046102, -0.1291167, -0.17122078
405, 3205608841, -65.51175689697266, 57.720726013183594, 128.8257293701172, -0.017918978, -0.12469402, -0.089365005
406, 3205625508, -65.5074691772461, 57.69539260864258, 128.80450439453125, -0.06617175, -0.1345819, -0.041941643
407, 3205642175, -65.48239135742188, 57.6783332824707, 128.77012634277344, -0.11184216, -0.11581204, -0.013702393
408, 3205658842, -65.45954895019531, 57.66677474975586, 128.72247314453125, -0.17284466, -0.075082414, -0.005707741
409, 3205675509, -65.46591186523438, 57.661617279052734, 128.66436767578125, -0.21733402, -0.02280581, 0.07952976
410, 3205692176, -65.55903625488281, 57.68132400512695, 128.58035278320312, -0.260111, 0.05520848, 0.14890957
411, 3205708843, -65.73432922363281, 57.74689483642578, 128.4448699951172, -0.31016746, 0.15294936, 0.07859993
412, 3205725510, -65.95960235595703, 57.844783782958984, 128.26292419433594, -0.28876498, 0.20922516, -0.030376434
413, 3205742177, -66.18001556396484, 57.93894577026367, 128.0561981201172, -0.19481976, 0.18148972, -0.060240746
414, 3205758844, -66.31126403808594, 58.033592224121094, 127.86737060546875, -0.18924071, 0.13882591, -0.05076313
415, 3205775511, -66.34671783447266, 58.13744354248047, 127.64689636230469, -0.14482158, 0.07656939, -0.057466507
416, 3205792178, -66.29367065429688, 58.23409652709961, 127.39688110351562, -0.07254912, -0.15091573, -0.2571106
417, 3205808845, -66.22147369384766, 58.3216667175293, 127.14461517333984, 0.03427987, -0.3353626, -0.4790802
418, 3205825512, -66.20313262939453, 58.40380096435547, 126.91349792480469, 0.0496856, -0.33281118, -0.62825394
419, 3205842179, -66.31883239746094, 58.475128173828125, 126.67948913574219, -0.0058246916, -0.10780885, -0.60321426
420, 3205858846, -66.50016784667969, 58.5289421081543, 126.44232177734375, -0.1199394, 0.020707022, -0.45268822
421, 3205875513, -66.63134002685547, 58.59687042236328, 126.21250915527344, -0.06719917, 0.26138136, -0.41514492
422, 3205892180, -66.74268341064453, 58.66801834106445, 125.9999008178711, -0.038606584, 0.20764913, -0.2953539
423, 3205908847, -66.87220764160156, 58.743587493896484, 125.8167724609375, -0.106015995, 0.027169341, -0.17767048
424, 3205925514, -67.0851058959961, 58.83600997924805, 125.58991241455078, -0.110077, 0.051746994, -0.070323944
425, 3205942181, -67.33756256103516, 58.93036651611328, 125.30435943603516, -0.095324054, 0.17470594, -0.022864342
426, 3205958848, -67.57859802246094, 59.016727447509766, 125.02751922607422, -0.12152916, 0.13000765, -0.021381378
427, 3205975515, -67.82723999023438, 59.09873962402344, 124.76221466064453, -0.1731884, 0.001688808, -0.04030037
428, 3205992182, -68.11321258544922, 59.190467834472656, 124.46876525878906, -0.20855677, -0.13014087, -0.0731411
429, 3206008849, -68.4601058959961, 59.28739547729492, 124.12364959716797, -0.20523031, -0.2317745, -0.09362793
430, 3206025516, -68.85016632080078, 59.37953567504883, 123.77452850341797, -0.15144803, -0.303795, -0.08629131
431, 3206042183, -69.25894165039062, 59.465450286865234, 123.47492980957031, -0.054323442, -0.32538274, -0.03891754
432, 3206058850, -69.65845489501953, 59.541927337646484, 123.20418548583984, -0.004995347, -0.26384655, 0.025723457
433, 3206075517, -70.0151596069336, 59.601261138916016, 122.96268463134766, 0.038532265, -0.16724016, 0.019073486
434, 3206092184, -70.31884765625, 59.65963363647461, 122.76053619384766, 0.05612736, -0.16115184, -0.023007393
435, 3206108851, -70.61431121826172, 59.72630310058594, 122.5707778930664, 0.08189381, -0.26669925, 0.01508522
436, 3206125518, -70.9676284790039, 59.805355072021484, 122.34949493408203, 0.12179477, -0.3270619, 0.08335018
437, 3206142185, -71.34888458251953, 59.88393020629883, 122.13134002685547, 0.16913, -0.34012878, 0.017120361
438, 3206158852, -71.74073791503906, 59.94276428222656, 121.93943786621094, 0.16938223, -0.2703535, -0.09594631
439, 3206175519, -72.09024810791016, 59.97986602783203, 121.79739379882812, 0.1934674, -0.19397032, -0.15745735
440, 3206192186, -72.37678527832031, 60.00811767578125, 121.70301818847656, 0.19213618, -0.20162903, -0.22410965
441, 3206208853, -72.6394271850586, 60.03812789916992, 121.61900329589844, 0.24299988, -0.23674633, -0.31093407
442, 3206225520, -72.8593521118164, 60.062232971191406, 121.56867980957031, 0.27663928, -0.26959953, -0.38433743
443, 3206242187, -73.05223083496094, 60.0753173828125, 121.55984497070312, 0.3098304, -0.32698956, -0.38733196
444, 3206258854, -73.24402618408203, 60.08150100708008, 121.58551025390625, 0.27217826, -0.3708496, -0.31509686
445, 3206275521, -73.44514465332031, 60.08818817138672, 121.60968780517578, 0.24835259, -0.3215597, -0.26828003
446, 3206292188, -73.61791229248047, 60.08320236206055, 121.63674926757812, 0.2322655, -0.26261148, -0.19702244
447, 3206308855, -73.73332977294922, 60.07148742675781, 121.6744155883789, 0.18469894, -0.27131826, -0.09771919
448, 3206325522, -73.77851867675781, 60.06614685058594, 121.72911071777344, 0.15982784, -0.34105015, -0.09269428
449, 3206342189, -73.79521942138672, 60.065948486328125, 121.78382873535156, 0.123452134, -0.37352136, -0.10687637
450, 3206358856, -73.83253479003906, 60.06956100463867, 121.82984161376953, 0.09379546, -0.3721066, -0.13796616
451, 3206375523, -73.90629577636719, 60.07619857788086, 121.88400268554688, 0.047158662, -0.3212195, -0.13463211
452, 3206392190, -73.98169708251953, 60.08149337768555, 121.92926025390625, 2.9947943E-4, -0.16355437, -0.07398987
453, 3206408857, -74.0203628540039, 60.08290100097656, 121.96171569824219, -0.040360127, 0.016154455, -0.022668839
454, 3206425524, -73.99773406982422, 60.07478713989258, 121.9877700805664, -0.0978796, 0.12018426, -0.03144741
455, 3206442191, -73.90156555175781, 60.06073760986328, 122.02962493896484, -0.1320354, 0.1453026, -0.08531952
456, 3206458858, -73.78072357177734, 60.040279388427734, 122.06147766113281, -0.1225907, 0.104191095, -0.16541386
457, 3206475525, -73.65857696533203, 60.01353454589844, 122.0718994140625, -0.11457836, 0.057892427, -0.18834972
458, 3206492192, -73.5519790649414, 59.98707962036133, 122.0561752319336, -0.09882723, 0.0034681947, -0.20158672
459, 3206508859, -73.43766021728516, 59.959964752197266, 122.02955627441406, -0.024024036, -0.059242968, -0.20333195
460, 3206525526, -73.29568481445312, 59.92930221557617, 122.01500701904297, -0.013336389, -0.07789027, -0.23195457
461, 3206542193, -73.12667083740234, 59.90238571166992, 121.99832916259766, 0.022842772, -0.07903985, -0.20450306
462, 3206558860, -72.91893768310547, 59.87832260131836, 121.97645568847656, 0.05583334, -0.10226408, -0.15699291
463, 3206575527, -72.66919708251953, 59.855735778808594, 121.95487213134766, 0.057312284, -0.12297082, -0.16160202
464, 3206592194, -72.38423919677734, 59.8285026550293, 121.93675994873047, 0.08976962, -0.08300081, -0.20191765
465, 3206608861, -72.08308410644531, 59.7922477722168, 121.92720031738281, 0.045560867, -0.109898806, -0.20926285
466, 3206625528, -71.80007934570312, 59.74794006347656, 121.92577362060547, 0.07014884, -0.123733364, -0.21235085
467, 3206642195, -71.5525131225586, 59.694454193115234, 121.94011688232422, 0.05544669, -0.07261723, -0.14707184
468, 3206658862, -71.33956909179688, 59.63252639770508, 121.96235656738281, 0.04967092, -0.006345421, -0.093473434
469, 3206675529, -71.16026306152344, 59.56840133666992, 121.98059844970703, 0.04498781, 0.0632783, -0.103048325
470, 3206692196, -70.9875259399414, 59.502750396728516, 121.99897003173828, 0.031703353, 0.114872225, -0.15725899
471, 3206708863, -70.77201843261719, 59.43531036376953, 122.04075622558594, 0.054990612, 0.1161613, -0.22054482
472, 3206725530, -70.52346801757812, 59.37540817260742, 122.1151123046875, 0.08402707, -0.030445259, -0.25010872
473, 3206742197, -70.32656860351562, 59.327762603759766, 122.19055938720703, 0.011748847, -0.1566371, -0.20209694
474, 3206758864, -70.22349548339844, 59.28987503051758, 122.24223327636719, -0.004561061, -0.17148931, -0.09557247
475, 3206775531, -70.17367553710938, 59.257083892822266, 122.28855895996094, -0.06707205, 0.0054674065, -0.07530594
476, 3206792198, -70.15510559082031, 59.23374557495117, 122.34320831298828, -0.12801819, 0.30036196, -0.10412598
477, 3206808865, -70.1632080078125, 59.22540283203125, 122.40774536132812, -0.18604816, 0.5185459, -0.19704056
478, 3206825532, -70.2550048828125, 59.23684310913086, 122.44041442871094, -0.16488741, 0.7426208, -0.3193102
479, 3206842199, -70.31724548339844, 59.24830627441406, 122.45926666259766, -0.15946937, 1.0524838, -0.28598404
480, 3206858866, -70.21749877929688, 59.24369430541992, 122.48615264892578, -0.31053662, 1.3430892, -0.34460163
481, 3206875533, -69.921142578125, 59.206520080566406, 122.49085235595703, -0.54214, 1.5064592, -0.48709106
482, 3206892200, -69.43475341796875, 59.11149597167969, 122.45220947265625, -0.5669438, 1.200142, -0.55652237
483, 3206908867, -68.87481689453125, 59.01237869262695, 122.37825012207031, -0.81695306, 0.35106945, -0.81766224
484, 3206925534, -68.6095199584961, 59.037479400634766, 122.09624481201172, -0.7225714, -0.31873947, -1.0252886
485, 3206942201, -68.83407592773438, 59.134124755859375, 121.48977661132812, -0.6035701, -0.50773764, -0.1435194
486, 3206958868, -69.42276763916016, 59.23652267456055, 120.59815216064453, -0.5018341, 0.027581777, 0.21482086
487, 3206975535, -70.03743743896484, 59.359622955322266, 119.55924987792969, -0.37320432, 0.20300436, 0.11104393
488, 3206992202, -70.39112091064453, 59.50981521606445, 118.63793182373047, -0.29686612, -0.12680583, 0.25399017
489, 3207008869, -70.56586456298828, 59.72956848144531, 117.85629272460938, -0.23912835, -0.5530354, 0.14556313
490, 3207025536, -70.7392349243164, 59.99232482910156, 117.1315689086914, -0.2534202, -1.0297166, -0.16092396
491, 3207042203, -71.06652069091797, 60.247676849365234, 116.41869354248047, -0.17449544, -1.2396426, -0.37127495
492, 3207058870, -71.5529556274414, 60.47657775878906, 115.753173828125, -0.07074942, -1.2290883, -0.26769924
493, 3207075537, -72.07266235351562, 60.684024810791016, 115.20421600341797, -0.03631517, -1.1230246, 0.1931982
494, 3207092204, -72.5169448852539, 60.89347457885742, 114.75384521484375, -0.034781452, -0.90545344, 0.39290905
495, 3207108871, -72.8267593383789, 61.101219177246094, 114.41272735595703, -0.02842051, -0.66319823, 0.1676073
496, 3207125538, -73.03309631347656, 61.297245025634766, 114.1429443359375, 0.08657626, -0.55806905, 0.023736
497, 3207142205, -73.25835418701172, 61.483097076416016, 113.9171371459961, 0.17619398, -0.7877686, 0.12005806
498, 3207158872, -73.64117431640625, 61.662689208984375, 113.73538208007812, 0.3231793, -1.0860845, 0.13445187
499, 3207175539, -74.22167205810547, 61.84357452392578, 113.54026794433594, 0.37214807, -1.0829432, -0.018265724
500, 3207192206, -74.94338989257812, 62.02044677734375, 113.33348846435547, 0.47087523, -0.7746388, -0.1727953
501, 3207208873, -75.74064636230469, 62.19235610961914, 113.15450286865234, 0.622186, -0.41545188, -0.22061634
502, 3207225540, -76.4880599975586, 62.36005783081055, 113.02688598632812, 0.6876056, 0.040118173, -0.021039963
503, 3207242207, -77.0848159790039, 62.512542724609375, 112.91172790527344, 0.6998128, 0.5398016, 0.059513092
504, 3207258874, -77.53662109375, 62.63353729248047, 112.76463317871094, 0.7129936, 0.81014925, -0.056512833
505, 3207275541, -77.82195281982422, 62.72216033935547, 112.63243103027344, 0.6132427, 0.73767745, -0.08555603
506, 3207292208, -77.9925308227539, 62.76804733276367, 112.538818359375, 0.49614483, 0.5039374, -0.088814735
507, 3207308875, -78.12931823730469, 62.78620147705078, 112.48469543457031, 0.34756973, 0.22412533, -0.14298534
508, 3207325542, -78.30052947998047, 62.778926849365234, 112.46729278564453, 0.2991564, 0.026818706, -0.21844387
509, 3207342209, -78.507568359375, 62.728275299072266, 112.4858627319336, 0.27470517, -0.04077653, -0.28607845
510, 3207358876, -78.68229675292969, 62.65237808227539, 112.56708526611328, 0.22184837, -0.03687902, -0.33476734
511, 3207375543, -78.78897857666016, 62.57697296142578, 112.67562103271484, 0.19275115, -0.04061884, -0.33377552
512, 3207392210, -78.81708526611328, 62.492488861083984, 112.80738830566406, 0.25913563, -0.11523122, -0.25353527
513, 3207408877, -78.7651596069336, 62.3892707824707, 112.96739959716797, 0.2298126, -0.1624623, -0.26331043
514, 3207425544, -78.61641693115234, 62.283321380615234, 113.16315460205078, 0.18064198, -0.15266661, -0.33184528
515, 3207442211, -78.37017059326172, 62.17986297607422, 113.38401794433594, 0.12825055, -0.11583928, -0.3882389
516, 3207458878, -78.03821563720703, 62.08945846557617, 113.62956237792969, 0.10370674, -0.15048322, -0.42334175
517, 3207475545, -77.71192932128906, 62.0115966796875, 113.87934875488281, 0.026896572, -0.22439119, -0.38530827
518, 3207492212, -77.44025421142578, 61.936683654785156, 114.11404418945312, -0.002384073, -0.15711196, -0.23074341
519, 3207508879, -77.17606353759766, 61.845367431640625, 114.36087036132812, -0.06147436, 0.02619136, -0.06071472
520, 3207525546, -76.86761474609375, 61.73373031616211, 114.63343048095703, -0.14491035, 0.19257943, 0.035578728
521, 3207542213, -76.50263214111328, 61.62612533569336, 114.90778350830078, -0.1724878, 0.21959533, 0.079408646
522, 3207558880, -76.11259460449219, 61.5396842956543, 115.1418685913086, -0.18242314, 0.19411924, -0.027023315
523, 3207575547, -75.73668670654297, 61.467994689941406, 115.32495880126953, -0.13520813, 0.09791667, -0.14803886
524, 3207592214, -75.39974212646484, 61.38707733154297, 115.48889923095703, -0.13366908, -0.029277459, -0.13352203
525, 3207608881, -75.0632095336914, 61.27864074707031, 115.69376373291016, -0.07108265, -0.13045703, -0.113040924
526, 3207625548, -74.70576477050781, 61.156959533691406, 115.95411682128906, -0.050481685, -0.1270531, -0.19776249
527, 3207642215, -74.35327911376953, 61.050758361816406, 116.23233795166016, -0.047110077, -0.11535504, -0.32729912
528, 3207658882, -74.05335235595703, 60.97596740722656, 116.47035217285156, -0.04201014, -0.09807207, -0.3277254
529, 3207675549, -73.79558563232422, 60.89456558227539, 116.70282745361328, -0.06915512, -0.06989244, -0.23282528
530, 3207692216, -73.56655883789062, 60.80078125, 116.9253921508789, -0.081685774, -0.047939673, -0.15641975
531, 3207708883, -73.3193588256836, 60.700992584228516, 117.15695190429688, -0.13864793, -0.009724267, -0.11398792
532, 3207725550, -73.06307983398438, 60.601707458496094, 117.39672088623047, -0.15246835, -0.0058601745, -0.27081108
533, 3207742217, -72.84950256347656, 60.539520263671875, 117.58624267578125, -0.24309857, -0.032210417, -0.35282612
534, 3207758884, -72.73258972167969, 60.52180099487305, 117.69094848632812, -0.29446903, -0.042637836, -0.13885784
535, 3207775551, -72.7254409790039, 60.51036834716797, 117.74818420410156, -0.3300801, 0.076897785, 0.019414902
536, 3207792218, -72.77452087402344, 60.4770622253418, 117.78673553466797, -0.40654957, 0.20289803, 0.06486988
537, 3207808885, -72.80608367919922, 60.4483757019043, 117.81132507324219, -0.4804406, 0.27905574, -0.009356499
538, 3207825552, -72.75935363769531, 60.46294403076172, 117.82401275634766, -0.37384737, 0.2814531, -0.0683651
539, 3207842219, -72.66139221191406, 60.49806594848633, 117.84256744384766, -0.24513376, 0.121542096, -0.11555767
540, 3207858886, -72.59874725341797, 60.529842376708984, 117.8633041381836, -0.16200484, -0.075057104, -0.18743992
541, 3207875553, -72.6124496459961, 60.556663513183594, 117.86347961425781, -0.09174106, -0.1180667, -0.21854782
542, 3207892220, -72.68889617919922, 60.58177185058594, 117.83506774902344, 0.009262782, -0.07440009, -0.17456436
543, 3207908887, -72.76428985595703, 60.61089324951172, 117.80265045166016, 0.14125067, -0.008761406, -0.20460415
544, 3207925554, -72.78544616699219, 60.643733978271484, 117.78479766845703, 0.16623628, -0.033130094, -0.23753738
545, 3207942221, -72.75830841064453, 60.670257568359375, 117.7853012084961, 0.1839577, -0.13096474, -0.22090054
546, 3207958888, -72.72705841064453, 60.68938064575195, 117.79216003417969, 0.23028381, -0.2624874, -0.08150959
547, 3207975555, -72.7276611328125, 60.70121765136719, 117.76643371582031, 0.30837756, -0.21158166, 0.104234695
548, 3207992222, -72.70569610595703, 60.700931549072266, 117.6624526977539, 0.5496485, 0.068478726, 0.4487419
549, 3208008889, -72.54821014404297, 60.679988861083984, 117.44459533691406, 0.618888, 0.55821484, 0.7923107
550, 3208025556, -72.05194091796875, 60.648868560791016, 117.11225891113281, 0.8230029, 0.81923753, 0.70664024
551, 3208042223, -71.03032684326172, 60.612300872802734, 116.73712921142578, 1.2320776, 0.46741349, 0.8301153
552, 3208058890, -69.57958221435547, 60.5973014831543, 116.33763122558594, 1.5210618, 0.053270627, 0.63222027
553, 3208075557, -67.8303451538086, 60.618927001953125, 115.94743347167969, 1.7220709, -0.58892286, -0.09436703
554, 3208092224, -66.0890884399414, 60.64410400390625, 115.66954040527344, 1.7251415, -1.4817339, -0.90315914
555, 3208108891, -64.80828094482422, 60.615203857421875, 115.37265014648438, 1.636094, -1.7686603, -1.04111
556, 3208125558, -64.01475524902344, 60.48890686035156, 114.85545349121094, 1.6978548, -1.0024612, -0.5518913
557, 3208142225, -63.2457160949707, 60.33028793334961, 114.14167022705078, 1.8436689, -0.21436614, -0.32837677
558, 3208158892, -62.184207916259766, 60.2819938659668, 113.3889389038086, 1.8727773, -0.19100803, -0.86292267
559, 3208175559, -61.1154670715332, 60.420501708984375, 112.51493835449219, 1.7920452, -0.6649243, -1.4251318
560, 3208192226, -60.37199401855469, 60.65983963012695, 111.3460693359375, 1.7289371, -0.96023446, -1.2038832
561, 3208208893, -60.016326904296875, 60.920875549316406, 109.78129577636719, 1.6396782, -0.6609475, -0.3573866
562, 3208225560, -59.730892181396484, 61.23649215698242, 108.04582977294922, 1.2882255, -0.6001355, 0.055356026
563, 3208242227, -59.2107048034668, 61.68145751953125, 106.44922637939453, 0.7838535, -0.74812436, -0.5126381
564, 3208258894, -58.83647918701172, 62.32465744018555, 104.81952667236328, 0.46376142, -0.99280876, -1.1452847
565, 3208275561, -59.055809020996094, 63.11067581176758, 102.9631118774414, 0.045019135, -1.4455291, -1.0454855
566, 3208292228, -59.99198913574219, 63.945831298828125, 100.77661895751953, -0.14826024, -1.4039885, -0.64761543
567, 3208308895, -61.53909683227539, 64.82662200927734, 98.27685546875, -0.32403064, -1.0727237, -0.42246437
568, 3208325562, -63.475337982177734, 65.82534790039062, 95.63682556152344, -0.6912771, -1.2157114, -0.79815865
569, 3208342229, -65.74468231201172, 66.95188903808594, 92.84473419189453, -0.8027312, -1.2790747, -0.9966879
570, 3208358896, -68.50889587402344, 68.1510238647461, 89.7048568725586, -1.1022575, -1.0290469, -0.57064915
571, 3208375563, -71.82095336914062, 69.36890411376953, 86.13720703125, -1.2552352, -0.6113977, -0.18821716
572, 3208392230, -75.64541625976562, 70.52984619140625, 82.11393737792969, -1.2737472, -0.018524306, -0.007188797
573, 3208408897, -79.79686737060547, 71.53656005859375, 77.62101745605469, -1.2824681, 0.5806507, 0.47001553
574, 3208425564, -83.77732849121094, 72.35865783691406, 73.07122802734375, -1.600581, 0.81564146, 0.7017412
575, 3208442231, -87.6800765991211, 73.1187744140625, 68.46536254882812, -1.5518874, 0.29608795, -0.07723141
576, 3208458898, -91.96183013916016, 73.8143310546875, 63.59872055053711, -1.494504, -0.10004272, -0.29695892
577, 3208475565, -96.46324157714844, 74.35118103027344, 58.83856201171875, -1.7045429, -0.04896096, 0.16266632
578, 3208492232, -100.71141052246094, 74.7293701171875, 54.53205490112305, -1.4922495, 0.562543, 0.33639526
579, 3208508899, -104.47693634033203, 74.97926330566406, 50.63920593261719, -1.0137321, 1.3415047, 0.429821
580, 3208525566, -107.51322937011719, 75.17562103271484, 47.238258361816406, -0.8840156, 1.4967035, 0.54095364
581, 3208542233, -109.82835388183594, 75.40501403808594, 44.38640213012695, -0.9901472, 1.2157558, 0.32000256
582, 3208558900, -111.6879653930664, 75.64611053466797, 41.96437454223633, -1.1364812, 0.99372864, -0.0061063766
583, 3208575567, -113.30357360839844, 75.84182739257812, 39.88032531738281, -1.1561297, 0.91234165, -0.22733974
584, 3208592234, -114.74391174316406, 75.99125671386719, 38.15678405761719, -1.0854192, 0.91853386, -0.42205906
585, 3208608901, -116.04195404052734, 76.11957550048828, 36.7851676940918, -1.0028994, 0.9347663, -0.5293274
586, 3208625568, -117.2039566040039, 76.23834991455078, 35.700286865234375, -0.79776347, 0.99435896, -0.48054695
587, 3208642235, -118.16487121582031, 76.35845947265625, 34.87535095214844, -0.5636343, 1.0755175, -0.4024477
588, 3208658902, -118.83343505859375, 76.49864196777344, 34.31209945678711, -0.3990115, 1.1017919, -0.35500145
589, 3208675569, -119.30449676513672, 76.65168762207031, 33.89938735961914, -0.38092473, 1.0662587, -0.3066492
590, 3208692236, -119.57093048095703, 76.79948425292969, 33.62509536743164, -0.29045445, 1.0970942, -0.18523788
591, 3208708903, -119.59371948242188, 76.93690490722656, 33.503875732421875, -0.20889837, 1.1395707, -0.1874981
592, 3208725570, -119.43453216552734, 77.07109069824219, 33.4847412109375, -0.18076432, 1.1539086, -0.19167042
593, 3208742237, -119.17160034179688, 77.20565795898438, 33.51711654663086, -0.17568228, 0.9581054, -0.22338104
594, 3208758904, -118.87957000732422, 77.33792877197266, 33.56975173950195, -0.1413166, 0.73419493, -0.30360317
595, 3208775571, -118.60240936279297, 77.4361801147461, 33.62786102294922, 0.008630087, 0.7206973, -0.14648342
596, 3208792238, -118.122314453125, 77.5015869140625, 33.88554382324219, 0.11990085, 0.8735909, 0.09675503
597, 3208808905, -117.41557312011719, 77.56752014160156, 34.298553466796875, 0.11780901, 0.9130808, 0.08855438
598, 3208825572, -116.6442642211914, 77.64962768554688, 34.73745346069336, 0.053546414, 0.80845505, -0.12402058
599, 3208842239, -115.8860855102539, 77.73812866210938, 35.24858093261719, -0.0027192587, 0.6152098, -0.25941753
600, 3208858906, -115.1968765258789, 77.80369567871094, 35.8289794921875, 0.0163545, 0.56897837, -0.25219345
601, 3208875573, -114.60050964355469, 77.84391021728516, 36.45167541503906, 0.046482228, 0.62416685, -0.26106834
602, 3208892240, -114.13809967041016, 77.86803436279297, 37.04043197631836, 0.10566522, 0.6317656, -0.2951641
603, 3208908907, -113.73626708984375, 77.88999938964844, 37.6348876953125, 0.019230468, 0.61181086, -0.22167492
604, 3208925574, -113.34637451171875, 77.9153823852539, 38.25007629394531, -0.003534159, 0.544114, -0.15816975
605, 3208942241, -113.0082015991211, 77.94041442871094, 38.82248306274414, -0.03985792, 0.49671856, -0.17402744
606, 3208958908, -112.75118255615234, 77.9460220336914, 39.32700729370117, 0.029044688, 0.44746196, -0.21992874
607, 3208975575, -112.53584289550781, 77.92344665527344, 39.73293685913086, 0.10471845, 0.52221835, -0.24338818
608, 3208992242, -112.32598876953125, 77.88178253173828, 40.02137756347656, 0.0897787, 0.60621107, -0.17970276
609, 3209008909, -112.12294006347656, 77.85121154785156, 40.192405700683594, 0.01576043, 0.42840135, -0.19396591
610, 3209025576, -111.95005798339844, 77.82928466796875, 40.28962326049805, -0.013661447, 0.25946936, -0.20868492
611, 3209042243, -111.75861358642578, 77.8078842163086, 40.42713165283203, -0.049910415, 0.22825155, -0.18729782
612, 3209058910, -111.5169677734375, 77.78300476074219, 40.63991165161133, -0.046586636, 0.23485792, -0.19316864
613, 3209075577, -111.30298614501953, 77.75880432128906, 40.87531661987305, -0.02740917, 0.19669743, -0.17282009
614, 3209092244, -111.0910873413086, 77.7404556274414, 41.143646240234375, -0.029559448, 0.15943079, -0.10003853
615, 3209108911, -110.85594940185547, 77.74051666259766, 41.47101974487305, -0.038234714, 0.122623004, -0.23666191
616, 3209125578, -110.72136688232422, 77.74927520751953, 41.768577575683594, -0.07668079, 0.102842666, -0.37273216
617, 3209142245, -110.68907928466797, 77.74666595458984, 42.0151252746582, -0.061927028, 0.13914959, -0.3251114
618, 3209158912, -110.71977233886719, 77.72036743164062, 42.1584358215332, 0.07776312, 0.29160842, -0.16991425
619, 3209175579, -110.6430435180664, 77.6960678100586, 42.26400375366211, 0.13510506, 0.3666597, -0.2292223
620, 3209192246, -110.43973541259766, 77.69768524169922, 42.40658950805664, -0.0037460213, 0.22880138, -0.3970623
621, 3209208913, -110.250732421875, 77.71875, 42.5308952331543, -0.13546209, 0.10820318, -0.5221405
622, 3209225580, -110.2289810180664, 77.73200225830078, 42.53201675415039, -0.1634712, 0.056718424, -0.4345951
623, 3209242247, -110.34273529052734, 77.7338638305664, 42.46604537963867, -0.096201345, 0.063094355, -0.19151688
624, 3209258914, -110.40840148925781, 77.73772430419922, 42.482418060302734, -0.012950536, 0.12074404, -0.1061821
625, 3209275581, -110.36273956298828, 77.7548599243164, 42.60573196411133, 0.008426969, 0.1874288, -0.25195026
626, 3209292248, -110.27996063232422, 77.79185485839844, 42.76762771606445, -0.016691612, 0.12991422, -0.3117695
627, 3209308915, -110.20732116699219, 77.83081817626953, 42.9433479309082, -0.062466837, 0.05506649, -0.27990055
628, 3209325582, -110.10474395751953, 77.86968231201172, 43.17625427246094, -0.034584384, 0.04119947, -0.26673126
629, 3209342249, -109.99822235107422, 77.90222930908203, 43.41737747192383, 7.594412E-4, 0.13673751, -0.29564476
630, 3209358916, -109.87133026123047, 77.93585205078125, 43.65399169921875, -0.0053098015, 0.21910919, -0.3202057
631, 3209375583, -109.70903015136719, 77.97457122802734, 43.89753341674805, -0.054869607, 0.24898247, -0.32764626
632, 3209392250, -109.53082275390625, 78.01444244384766, 44.138790130615234, -0.035891347, 0.22662996, -0.34734154
633, 3209408917, -109.37442016601562, 78.04854583740234, 44.35334777832031, -0.026864246, 0.28583843, -0.28405857
634, 3209425584, -109.2384033203125, 78.08468627929688, 44.54744338989258, -0.0030126194, 0.29024822, -0.32875443
635, 3209442251, -109.15203857421875, 78.12394714355469, 44.68918991088867, -0.0072066165, 0.29981604, -0.26298237
636, 3209458918, -109.08759307861328, 78.16705322265625, 44.806922912597656, -0.04513484, 0.27471006, -0.189744
637, 3209475585, -109.02310180664062, 78.20948791503906, 44.949337005615234, -0.04145816, 0.24388772, -0.27784824
638, 3209492252, -109.00121307373047, 78.23749542236328, 45.07565689086914, -0.043540422, 0.29463387, -0.28823566
639, 3209508919, -108.97456359863281, 78.25697326660156, 45.20115661621094, 0.0100257015, 0.3155738, -0.15063381
640, 3209525586, -108.90325164794922, 78.27297973632812, 45.34453201293945, 0.06661404, 0.32607388, -0.105997086
641, 3209542253, -108.75476837158203, 78.28897094726562, 45.53036880493164, 0.090325326, 0.36526856, -0.1606884
642, 3209558920, -108.5452880859375, 78.30585479736328, 45.75492858886719, 0.040975932, 0.38588652, -0.24984646
643, 3209575587, -108.36457061767578, 78.3216552734375, 45.95173263549805, 0.03216659, 0.338813, -0.28761482
644, 3209592254, -108.1685562133789, 78.3296890258789, 46.17808151245117, 0.038140055, 0.30378762, -0.21364307
645, 3209608921, -107.94662475585938, 78.32675170898438, 46.43374252319336, 0.054439094, 0.31143367, -0.16400051
646, 3209625588, -107.70419311523438, 78.32144165039062, 46.701011657714844, 0.085399106, 0.30225667, -0.16713333
647, 3209642255, -107.42572021484375, 78.31591796875, 47.01430130004883, 0.05372025, 0.26361018, -0.20795345
648, 3209658922, -107.16512298583984, 78.30794525146484, 47.34001541137695, -0.0036045448, 0.289683, -0.3366251
649, 3209675589, -106.95958709716797, 78.29470825195312, 47.629852294921875, 0.017937865, 0.30709976, -0.3366413
650, 3209692256, -106.8002700805664, 78.27075958251953, 47.876731872558594, 0.057984177, 0.29632142, -0.21695232
651, 3209708923, -106.59143829345703, 78.23975372314453, 48.13933181762695, 0.13674405, 0.34287906, -0.15474606
652, 3209725590, -106.3092041015625, 78.21036529541016, 48.423561096191406, 0.09981879, 0.33706582, -0.26185703
653, 3209742257, -106.02632904052734, 78.18767547607422, 48.696678161621094, -0.036050253, 0.25098282, -0.35964108
654, 3209758924, -105.78275299072266, 78.16058349609375, 48.9527473449707, -0.036041927, 0.19060056, -0.32031727
655, 3209775591, -105.58209991455078, 78.12427520751953, 49.1707763671875, -0.015454496, 0.21607925, -0.25691128
656, 3209792258, -105.3953857421875, 78.08560943603516, 49.37473678588867, 0.07407394, 0.17305066, -0.25462627
657, 3209808925, -105.16119384765625, 78.05026245117188, 49.62906265258789, 0.054093223, 0.16963594, -0.2477665
658, 3209825592, -104.85164642333984, 78.01771545410156, 49.96110534667969, 0.009588119, 0.1895943, -0.2876768
659, 3209842259, -104.5824966430664, 77.99087524414062, 50.25588607788086, -0.048814673, 0.17568606, -0.2712927
660, 3209858926, -104.34105682373047, 77.97639465332031, 50.50694274902344, -0.011752591, 0.16188273, -0.1966114
661, 3209875593, -104.01673889160156, 77.95816040039062, 50.84407424926758, 0.01652413, 0.06971078, -0.23099041
662, 3209892260, -103.70341491699219, 77.93592071533203, 51.17723846435547, -0.01504664, 0.044085138, -0.26960945
663, 3209908927, -103.51874542236328, 77.92053985595703, 51.395263671875, -0.041769795, 0.064691804, -0.24462795
664, 3209925594, -103.45226287841797, 77.90884399414062, 51.503658294677734, -0.035413112, 0.06872845, -0.2024517
665, 3209942261, -103.40776824951172, 77.90489959716797, 51.57008361816406, 0.02422207, 0.105604395, -0.21352196
666, 3209958928, -103.32808685302734, 77.91230010986328, 51.64321517944336, 0.08552839, 0.10162721, -0.2308569
667, 3209975595, -103.26446533203125, 77.93072509765625, 51.682640075683594, 0.09009278, 0.045201696, -0.26307487
668, 3209992262, -103.21038818359375, 77.95344543457031, 51.71510696411133, 0.065215476, -0.002376725, -0.286829
669, 3210008929, -103.20149230957031, 77.97252655029297, 51.736324310302734, 0.020900657, 0.01950961, -0.32376862
670, 3210025596, -103.23760986328125, 77.99322509765625, 51.729618072509766, 0.051198423, 0.128739, -0.3178606
671, 3210042263, -103.31693267822266, 78.01551818847656, 51.67011642456055, 0.06744245, 0.2159952, -0.27505016
672, 3210058930, -103.36524963378906, 78.04547882080078, 51.6035270690918, 0.06024398, 0.23385759, -0.24519539
673, 3210075597, -103.42433166503906, 78.083984375, 51.501991271972656, 0.06685918, 0.18344401, -0.31120777
674, 3210092264, -103.54065704345703, 78.12185668945312, 51.34501647949219, 0.032167103, 0.20626546, -0.29750252
675, 3210108931, -103.62747955322266, 78.15082550048828, 51.22583770751953, -0.0026402469, 0.2941977, -0.31869698
676, 3210125598, -103.72026062011719, 78.18025207519531, 51.117374420166016, 0.0015246099, 0.3190948, -0.35210705
677, 3210142265, -103.8678207397461, 78.20714569091797, 50.98590087890625, -0.03822809, 0.34337714, -0.33357716
678, 3210158932, -104.057861328125, 78.22640991210938, 50.83636474609375, -0.054322757, 0.33916047, -0.22938251
679, 3210175599, -104.2147216796875, 78.23992156982422, 50.71533203125, -0.03357455, 0.36838165, -0.1721468
680, 3210192266, -104.31212615966797, 78.25362396240234, 50.63075256347656, -0.028114343, 0.39031324, -0.2148428
681, 3210208933, -104.40328216552734, 78.27371978759766, 50.54450607299805, -0.048380204, 0.33932942, -0.22939873
682, 3210225600, -104.49600982666016, 78.28904724121094, 50.465667724609375, -0.09285601, 0.30842686, -0.16436577
683, 3210242267, -104.57035827636719, 78.29507446289062, 50.406471252441406, -0.058206964, 0.32146695, -0.1170187
684, 3210258934, -104.6288833618164, 78.2954330444336, 50.35017776489258, -0.019559003, 0.33490902, -0.13849354
685, 3210275601, -104.64851379394531, 78.29898071289062, 50.320369720458984, -0.03303456, 0.29979357, -0.17389107
686, 3210292268, -104.62772369384766, 78.30409240722656, 50.33550262451172, -0.0434443, 0.22560649, -0.19321251
687, 3210308935, -104.59988403320312, 78.30377960205078, 50.36268997192383, -0.07480934, 0.23783511, -0.15358162
688, 3210325602, -104.55599975585938, 78.30521392822266, 50.397056579589844, -0.0096855145, 0.27075028, -0.088703156
689, 3210342269, -104.43438720703125, 78.30970001220703, 50.48529815673828, 0.039925423, 0.26170304, -0.10625744
690, 3210358936, -104.23655700683594, 78.31864929199219, 50.6324577331543, 0.023009334, 0.21798089, -0.213027
691, 3210375603, -104.03582763671875, 78.32889556884766, 50.791988372802734, -0.03554563, 0.17788883, -0.34357738
692, 3210392270, -103.93671417236328, 78.3358383178711, 50.88493728637695, -0.080860674, 0.1757754, -0.4156189
693, 3210408937, -103.94154357910156, 78.33650970458984, 50.88862609863281, -0.01698313, 0.2170464, -0.31586552
694, 3210425604, -103.921630859375, 78.33666229248047, 50.90117263793945, 0.0061649485, 0.2612653, -0.20314407
695, 3210442271, -103.86222076416016, 78.34265899658203, 50.93046188354492, 0.021995813, 0.223712, -0.25335884
696, 3210458938, -103.83799743652344, 78.3551025390625, 50.92349624633789, -0.010758684, 0.19695805, -0.30675507
697, 3210475605, -103.90046691894531, 78.36593627929688, 50.85302734375, -0.056084793, 0.19333993, -0.33409214
698, 3210492272, -104.02616119384766, 78.37437438964844, 50.73495864868164, -0.05411535, 0.210051, -0.23255062
699, 3210508939, -104.11920928955078, 78.3860092163086, 50.65218734741211, -0.026828455, 0.24399893, -0.15988159
700, 3210525606, -104.16902923583984, 78.40381622314453, 50.60854721069336, -0.048711702, 0.20711549, -0.19119644
701, 3210542273, -104.22471618652344, 78.42454528808594, 50.57462692260742, -0.08355895, 0.1643144, -0.28472996
702, 3210558940, -104.35987091064453, 78.44122314453125, 50.48738098144531, -0.066500984, 0.17863323, -0.31517696
703, 3210575607, -104.54936218261719, 78.44891357421875, 50.35376739501953, -0.015613204, 0.26125646, -0.26330376
704, 3210592274, -104.70682525634766, 78.4565658569336, 50.22334671020508, 0.030305479, 0.32790178, -0.23135662
705, 3210608941, -104.82374572753906, 78.47178649902344, 50.08234405517578, 0.04622413, 0.31801167, -0.24900818
706, 3210625608, -104.89854431152344, 78.49103546142578, 49.963340759277344, 0.0055190655, 0.22723769, -0.25759602
707, 3210642275, -104.99007415771484, 78.50753021240234, 49.84629821777344, -0.06929174, 0.11972695, -0.2337637
708, 3210658942, -105.14244079589844, 78.52029418945312, 49.70218276977539, -0.0794278, 0.09299111, -0.20005798
709, 3210675609, -105.33140563964844, 78.5301513671875, 49.55124282836914, -0.06822132, 0.13307346, -0.20007706
710, 3210692276, -105.55139923095703, 78.54117584228516, 49.37670135498047, -0.04364603, 0.24341264, -0.18385315
711, 3210708943, -105.76134490966797, 78.55670928955078, 49.194190979003906, 0.0069049625, 0.30714056, -0.1568861
712, 3210725610, -105.9348373413086, 78.5748519897461, 49.02433776855469, -0.01600403, 0.31234482, -0.1796236
713, 3210742277, -106.08087921142578, 78.59242248535156, 48.87013626098633, -0.068626456, 0.27129465, -0.1889677
714, 3210758944, -106.2184829711914, 78.60748291015625, 48.73040771484375, -0.061874505, 0.21659233, -0.1966343
715, 3210775611, -106.36946105957031, 78.62364196777344, 48.588653564453125, -0.009979392, 0.23097505, -0.17660809
716, 3210792278, -106.47718811035156, 78.63899230957031, 48.49083709716797, 0.008635004, 0.26304647, -0.22106457
717, 3210808945, -106.5114974975586, 78.6568832397461, 48.47016525268555, 0.010661051, 0.27817786, -0.2563076
718, 3210825612, -106.55181884765625, 78.6754379272461, 48.44413375854492, 0.024310973, 0.30847314, -0.24721527
719, 3210842279, -106.58113861083984, 78.6886978149414, 48.41501235961914, 0.055343483, 0.36362204, -0.31362247
720, 3210858946, -106.56935119628906, 78.69869995117188, 48.414188385009766, -0.0018818114, 0.35962576, -0.38666725
721, 3210875613, -106.58213806152344, 78.70977020263672, 48.39665985107422, -0.0055993907, 0.25839898, -0.38143063
722, 3210892280, -106.63949584960938, 78.71851348876953, 48.357177734375, 0.0024014886, 0.21753702, -0.30873013
723, 3210908947, -106.74223327636719, 78.71748352050781, 48.2872200012207, 0.016191712, 0.2301523, -0.2761984
724, 3210925614, -106.85443115234375, 78.71341705322266, 48.220638275146484, 0.012924595, 0.2686335, -0.27520275
725, 3210942281, -106.98482513427734, 78.7083740234375, 48.13438415527344, 0.038642902, 0.32411715, -0.25180435
726, 3210958948, -107.08384704589844, 78.70586395263672, 48.06132888793945, 0.022729075, 0.316454, -0.22389507
727, 3210975615, -107.1738052368164, 78.70551300048828, 47.98070526123047, 0.01677325, 0.24869537, -0.2126894
728, 3210992282, -107.25369262695312, 78.70372009277344, 47.91855239868164, 0.00690201, 0.15849304, -0.20055199
729, 3211008949, -107.32801055908203, 78.69916534423828, 47.89006423950195, -0.06523889, 0.12795715, -0.2236433
730, 3211025616, -107.41905975341797, 78.68812561035156, 47.858131408691406, -0.069937706, 0.181018, -0.15899944
731, 3211042283, -107.49891662597656, 78.67406463623047, 47.82548141479492, -0.011939028, 0.22320071, -0.1105175
732, 3211058950, -107.52277374267578, 78.66393280029297, 47.82228088378906, 0.032669656, 0.22964187, -0.14546585
733, 3211075617, -107.50618743896484, 78.654296875, 47.83721923828125, 0.056541976, 0.19693828, -0.15739441
734, 3211092284, -107.43205261230469, 78.64791870117188, 47.89502716064453, 0.043606706, 0.18519747, -0.21085739
735, 3211108951, -107.3535385131836, 78.6454086303711, 47.95522689819336, -0.0070769093, 0.18999596, -0.32295704
736, 3211125618, -107.3456802368164, 78.64411163330078, 47.95777893066406, -0.0064336667, 0.18709554, -0.34111118
737, 3211142285, -107.36868286132812, 78.64674377441406, 47.93411636352539, 0.030493468, 0.16503504, -0.3066597
738, 3211158952, -107.42947387695312, 78.65045928955078, 47.87652587890625, 0.044128023, 0.13746852, -0.30136108
739, 3211175619, -107.5228042602539, 78.64958953857422, 47.79558181762695, -0.00606881, 0.19825387, -0.2760172
740, 3211192286, -107.60533905029297, 78.65018463134766, 47.728790283203125, 0.006267471, 0.23063599, -0.30895424
741, 3211208953, -107.69882202148438, 78.65574645996094, 47.65099334716797, 0.025308987, 0.22695382, -0.3080778
742, 3211225620, -107.74689483642578, 78.66311645507812, 47.61699676513672, -0.007616697, 0.24754675, -0.2560978
743, 3211242287, -107.75630187988281, 78.67395782470703, 47.623416900634766, -0.056416612, 0.25609523, -0.2661314
744, 3211258954, -107.77570343017578, 78.68478393554688, 47.623619079589844, -0.04611751, 0.27960667, -0.29987907
745, 3211275621, -107.87332916259766, 78.68722534179688, 47.54775619506836, -0.036785692, 0.28390738, -0.30699158
746, 3211292288, -107.9830093383789, 78.68157958984375, 47.44436264038086, 0.00264068, 0.2907433, -0.23616123
747, 3211308955, -108.0204849243164, 78.67910766601562, 47.40381622314453, 0.014759148, 0.27535343, -0.21709633
748, 3211325622, -108.05193328857422, 78.68126678466797, 47.361515045166016, -0.0053589046, 0.2669203, -0.24579525
749, 3211342289, -108.09001922607422, 78.68592834472656, 47.315155029296875, -0.0043535293, 0.2352409, -0.22772312
750, 3211358956, -108.11149597167969, 78.68902587890625, 47.29121780395508, 0.0087567065, 0.19193594, -0.23406029
751, 3211375623, -108.09515380859375, 78.68742370605469, 47.321502685546875, -0.006024792, 0.14982677, -0.21372032
752, 3211392290, -108.09555053710938, 78.687744140625, 47.34794616699219, -0.036616955, 0.15284687, -0.16639137
753, 3211408957, -108.1381607055664, 78.68843841552734, 47.34452438354492, -0.019483907, 0.17228551, -0.19396496
754, 3211425624, -108.2005386352539, 78.68779754638672, 47.32949447631836, -0.0033084387, 0.21784846, -0.25580406
755, 3211442291, -108.25108337402344, 78.69190216064453, 47.32575225830078, -0.009392657, 0.25488076, -0.26091766
756, 3211458958, -108.23773956298828, 78.7078628540039, 47.38090515136719, -0.039634336, 0.24512833, -0.23357296
757, 3211475625, -108.16883087158203, 78.73564910888672, 47.50725173950195, -0.09571715, 0.17867324, -0.15791988
758, 3211492292, -108.11316680908203, 78.76947784423828, 47.676658630371094, -0.14652608, 0.1322031, -0.16950607
759, 3211508959, -108.17159271240234, 78.801025390625, 47.799251556396484, -0.13185008, 0.21196806, -0.2650566
760, 3211525626, -108.33938598632812, 78.82470703125, 47.83533477783203, -0.09292115, 0.38571754, -0.2523527
761, 3211542293, -108.52239227294922, 78.84404754638672, 47.82604217529297, 0.04365975, 0.47713333, -0.16834736
762, 3211558960, -108.61943054199219, 78.8644027709961, 47.83848190307617, 0.116157725, 0.49944317, -0.17463207
763, 3211575627, -108.66276550292969, 78.8825454711914, 47.843910217285156, 0.103181094, 0.46002966, -0.23091698
764, 3211592294, -108.68982696533203, 78.89257049560547, 47.84242248535156, 0.056755528, 0.36886087, -0.30034637
765, 3211608961, -108.72229766845703, 78.89356994628906, 47.85670471191406, 0.011182493, 0.25794423, -0.33355808
766, 3211625628, -108.80261993408203, 78.88341522216797, 47.87131118774414, -0.008413447, 0.21890323, -0.28560352
767, 3211642295, -108.92145538330078, 78.86500549316406, 47.871944427490234, 0.013861743, 0.2932501, -0.26078415
768, 3211658962, -109.009033203125, 78.8476333618164, 47.89360046386719, 0.060658343, 0.3388186, -0.3108425
769, 3211675629, -109.05204772949219, 78.83505249023438, 47.92719268798828, 0.06574786, 0.3162, -0.34607983
770, 3211692296, -109.03781127929688, 78.82547760009766, 47.98857879638672, 0.028292255, 0.26899797, -0.31998634
771, 3211708963, -108.98934173583984, 78.81935119628906, 48.069175720214844, -0.039956767, 0.16158433, -0.3367796
772, 3211725630, -109.00627899169922, 78.81092071533203, 48.09616470336914, -0.08108702, 0.05851379, -0.38585854
773, 3211742297, -109.15081024169922, 78.79463195800781, 48.028785705566406, -0.09466712, 0.022898456, -0.3579979
774, 3211758964, -109.36931610107422, 78.77420806884766, 47.92768478393555, -0.09675954, 0.0050904257, -0.31201744
775, 3211775631, -109.67821502685547, 78.75267791748047, 47.750831604003906, -0.077753134, 0.09538046, -0.2851715
776, 3211792298, -110.03170013427734, 78.73808288574219, 47.50804901123047, -0.042542674, 0.16572122, -0.19591427
777, 3211808965, -110.34586334228516, 78.73685455322266, 47.26719665527344, -2.2204615E-4, 0.16689187, -0.041682243
778, 3211825632, -110.55169677734375, 78.74128723144531, 47.09049987792969, 0.0034054713, 0.13362543, 0.010940552
779, 3211842299, -110.66836547851562, 78.74552917480469, 46.97837829589844, 0.042966593, 0.10887305, -0.046063423
780, 3211858966, -110.74539184570312, 78.746826171875, 46.91080856323242, 0.014003268, 0.043202482, -0.096206665
781, 3211875633, -110.8013687133789, 78.744873046875, 46.889625549316406, 0.015490677, 0.059781335, -0.15984726
782, 3211892300, -110.84683990478516, 78.73841857910156, 46.897308349609375, 0.025079677, 0.13186593, -0.28160954
783, 3211908967, -110.94978332519531, 78.73357391357422, 46.84442901611328, 0.106779516, 0.232776, -0.31507206
784, 3211925634, -111.03459167480469, 78.73065185546875, 46.78360366821289, 0.112102844, 0.33272174, -0.2281866
785, 3211942301, -111.03277587890625, 78.73540496826172, 46.758934020996094, 0.08166874, 0.3417189, -0.21849155
786, 3211958968, -110.97350311279297, 78.74344635009766, 46.75408935546875, 0.03717561, 0.2855928, -0.31196594
787, 3211975635, -110.9385757446289, 78.746337890625, 46.734004974365234, -0.031918824, 0.21839562, -0.36879063
788, 3211992302, -110.95099639892578, 78.74214935302734, 46.704437255859375, -0.038278326, 0.17110029, -0.36608887
789, 3212008969, -111.01394653320312, 78.72994995117188, 46.659584045410156, -0.047246113, 0.2113809, -0.33511257
790, 3212025636, -111.10472869873047, 78.71770477294922, 46.59750747680664, 0.03210399, 0.235084, -0.2584133
791, 3212042303, -111.16413879394531, 78.71266174316406, 46.55862808227539, 0.013086068, 0.25442034, -0.24619389
792, 3212058970, -111.18639373779297, 78.71625518798828, 46.54751968383789, 0.014599545, 0.2240553, -0.3221979
793, 3212075637, -111.22108459472656, 78.7181625366211, 46.53358840942383, -0.00950296, 0.19675857, -0.3578987
794, 3212092304, -111.26338958740234, 78.71507263183594, 46.52627944946289, 0.040317953, 0.14754514, -0.37683392
795, 3212108971, -111.28274536132812, 78.70560455322266, 46.54620361328125, 0.034198962, 0.14825037, -0.32699108
796, 3212125638, -111.26600646972656, 78.6971664428711, 46.59614562988281, 0.0407513, 0.13436191, -0.2936659
797, 3212142305, -111.22305297851562, 78.69050598144531, 46.65868377685547, 0.039982807, 0.16786493, -0.33803558
798, 3212158972, -111.1687240600586, 78.6832504272461, 46.70927429199219, 0.032645535, 0.1480609, -0.31993675
799, 3212175639, -111.12027740478516, 78.67926788330078, 46.73793029785156, 0.049766585, 0.10630164, -0.30941486
800, 3212192306, -111.07569122314453, 78.68201446533203, 46.761940002441406, 0.026183257, 0.07162048, -0.35155487
801, 3212208973, -111.07770538330078, 78.68460845947266, 46.74745559692383, -0.030455302, 0.10243387, -0.33064842
802, 3212225640, -111.14418029785156, 78.68717956542969, 46.659610748291016, 0.016066208, 0.0799051, -0.3048668
803, 3212242307, -111.21949768066406, 78.6939468383789, 46.55019760131836, 0.035142608, 0.053947758, -0.27591896
804, 3212258974, -111.27104187011719, 78.71065521240234, 46.472503662109375, -0.007251738, 0.046479966, -0.22338676
805, 3212275641, -111.31621551513672, 78.74126434326172, 46.42210006713867, -0.105362445, 0.084992185, -0.25170422
806, 3212292308, -111.46200561523438, 78.77952575683594, 46.294593811035156, -0.105037175, 0.16089758, -0.28931904
807, 3212308975, -111.69044494628906, 78.81352996826172, 46.0885009765625, -0.028543206, 0.29266217, -0.27217197
808, 3212325642, -111.902099609375, 78.8448257446289, 45.87147521972656, -7.7684724E-4, 0.35821202, -0.28537083
809, 3212342309, -112.057373046875, 78.87857818603516, 45.67347717285156, -0.041405607, 0.34332138, -0.24519253
810, 3212358976, -112.15662384033203, 78.91228485107422, 45.51070022583008, -0.067492686, 0.30218247, -0.2341938
811, 3212375643, -112.23130798339844, 78.93623352050781, 45.391571044921875, -0.086359456, 0.23190665, -0.28147316
812, 3212392310, -112.34121704101562, 78.94520568847656, 45.26728439331055, -0.027160317, 0.2212946, -0.26100826
813, 3212408977, -112.39798736572266, 78.94512939453125, 45.20949935913086, 0.052363217, 0.26610535, -0.23108101
814, 3212425644, -112.40287780761719, 78.94459533691406, 45.206085205078125, 0.053344343, 0.28007907, -0.18398094
815, 3212442311, -112.38262939453125, 78.94287109375, 45.2155647277832, 0.077065244, 0.25712785, -0.18551922
816, 3212458978, -112.32583618164062, 78.9359130859375, 45.25266647338867, 0.07475245, 0.24879242, -0.2584095
817, 3212475645, -112.22819519042969, 78.92339324951172, 45.33297348022461, 0.057708893, 0.19720447, -0.29453182
818, 3212492312, -112.10761260986328, 78.90741729736328, 45.43889236450195, 0.042575054, 0.12236373, -0.2746477
819, 3212508979, -112.00109100341797, 78.89170837402344, 45.53718566894531, 0.05600039, 0.07770942, -0.2560053
820, 3212525646, -111.92231750488281, 78.87207794189453, 45.626853942871094, 0.008585552, 0.05147615, -0.2582512
821, 3212542313, -111.85528564453125, 78.8541488647461, 45.715457916259766, 0.007595487, 0.06654327, -0.2334404
822, 3212558980, -111.80384063720703, 78.83831787109375, 45.77497100830078, 0.037322488, 0.08599136, -0.2040987
823, 3212575647, -111.73099517822266, 78.8294677734375, 45.83509063720703, 0.01723296, 0.09619584, -0.21883488
824, 3212592314, -111.59138488769531, 78.8319320678711, 45.947174072265625, -0.035681747, 0.07539338, -0.31191635
825, 3212608981, -111.4504623413086, 78.83463287353516, 46.0551643371582, 0.0035816135, 0.088435136, -0.3511629
826, 3212625648, -111.32476806640625, 78.83533477783203, 46.156150817871094, -0.0044739996, 0.11908458, -0.35079765
827, 3212642315, -111.21951293945312, 78.84087371826172, 46.25241470336914, -0.017529018, 0.13308856, -0.3273239
828, 3212658982, -111.13739013671875, 78.84608459472656, 46.33251190185547, -0.02365879, 0.18417087, -0.25493145
829, 3212675649, -111.0749740600586, 78.84825134277344, 46.38616943359375, -0.03047704, 0.2065994, -0.2315073
830, 3212692316, -111.06314086914062, 78.8471450805664, 46.384849548339844, -0.027825532, 0.23180428, -0.15674782
831, 3212708983, -111.00826263427734, 78.8448486328125, 46.416465759277344, -0.04025034, 0.23025255, -0.108636856
832, 3212725650, -110.86322021484375, 78.84593963623047, 46.5292854309082, 0.013996689, 0.22534151, -0.16101551
833, 3212742317, -110.66161346435547, 78.84606170654297, 46.69881820678711, 0.04490895, 0.21969502, -0.23470688
834, 3212758984, -110.403076171875, 78.8476333618164, 46.93529510498047, 0.03399709, 0.24212064, -0.2833538
835, 3212775651, -110.1277084350586, 78.84742736816406, 47.20014190673828, 0.06822118, 0.24215618, -0.3170166
836, 3212792318, -109.82714080810547, 78.84228515625, 47.487579345703125, 0.045182712, 0.27277243, -0.27752495
837, 3212808985, -109.48566436767578, 78.83773040771484, 47.79793167114258, 0.05292923, 0.24748038, -0.3132801
838, 3212825652, -109.1310043334961, 78.83250427246094, 48.11163330078125, 0.06090721, 0.18836041, -0.37927532
839, 3212842319, -108.80770874023438, 78.82664489746094, 48.40314865112305, 0.023605803, 0.13535096, -0.36367893
840, 3212858986, -108.58293914794922, 78.82122039794922, 48.6190299987793, -0.012028252, 0.13956685, -0.35338974
841, 3212875653, -108.49117279052734, 78.81741333007812, 48.71791458129883, -0.03182232, 0.21675605, -0.28166485
842, 3212892320, -108.49530792236328, 78.81683349609375, 48.71699523925781, -0.007621722, 0.2529059, -0.19549274
843, 3212908987, -108.4887466430664, 78.82685852050781, 48.70488357543945, -0.013881607, 0.25569758, -0.13610744
844, 3212925654, -108.46025085449219, 78.84196472167969, 48.694515228271484, -0.06964665, 0.23837769, -0.14150524
845, 3212942321, -108.42839050292969, 78.85860443115234, 48.69182586669922, -0.14251326, 0.20358488, -0.12484646
846, 3212958988, -108.39641571044922, 78.8717041015625, 48.703460693359375, -0.115343, 0.2343662, -0.10335255
847, 3212975655, -108.35075378417969, 78.88491821289062, 48.74775314331055, -0.11836256, 0.28056568, -0.1911087
848, 3212992322, -108.27474975585938, 78.90365600585938, 48.8225212097168, -0.032452546, 0.3294241, -0.20590782
849, 3213008989, -108.17216491699219, 78.9256820678711, 48.921165466308594, -0.014670497, 0.35883674, -0.2105875
850, 3213025656, -108.0481185913086, 78.94660949707031, 49.03190994262695, -0.00240757, 0.385854, -0.2337923
851, 3213042323, -107.89285278320312, 78.95626831054688, 49.15326690673828, 0.07411922, 0.35667014, -0.24329662
852, 3213058990, -107.72563934326172, 78.95948028564453, 49.285247802734375, 0.08666311, 0.2946, -0.2738657
853, 3213075657, -107.55812072753906, 78.96073150634766, 49.43755340576172, 0.07897442, 0.20701212, -0.29468155
854, 3213092324, -107.43944549560547, 78.95671081542969, 49.567623138427734, 0.02786205, 0.20234762, -0.35122585
855, 3213108991, -107.38955688476562, 78.95035552978516, 49.651432037353516, 0.06267922, 0.20270178, -0.37462807
856, 3213125658, -107.36581420898438, 78.94530487060547, 49.7136344909668, 0.07743243, 0.21045443, -0.33385277
857, 3213142325, -107.32328796386719, 78.94664764404297, 49.77906799316406, 0.04835208, 0.19901739, -0.2576084
858, 3213158992, -107.23381042480469, 78.9552001953125, 49.875732421875, -0.017885424, 0.1378876, -0.20596123
859, 3213175659, -107.07551574707031, 78.96365356445312, 50.039207458496094, -0.05075771, 0.07279437, -0.17843056
860, 3213192326, -106.86395263671875, 78.96834564208984, 50.27080154418945, -0.093543395, 0.052582875, -0.1250372
861, 3213208993, -106.58538055419922, 78.96920013427734, 50.57792663574219, -0.11265856, 0.13174166, -0.16333675
862, 3213225660, -106.27951049804688, 78.97018432617188, 50.92266082763672, -0.09998212, 0.16342765, -0.22483253
863, 3213242327, -105.95806884765625, 78.96996307373047, 51.28165054321289, -0.03955801, 0.2163924, -0.23932266
864, 3213258994, -105.64940643310547, 78.96916961669922, 51.60829162597656, 0.012945228, 0.24512264, -0.24056149
865, 3213275661, -105.3724365234375, 78.97222137451172, 51.87723159790039, 0.024377482, 0.23832852, -0.2911644
866, 3213292328, -105.14622497558594, 78.9778060913086, 52.07726287841797, 0.056315836, 0.21727347, -0.27030945
867, 3213308995, -104.98853302001953, 78.98438262939453, 52.1972770690918, 0.033764217, 0.21436624, -0.24008179
868, 3213325662, -104.9118423461914, 78.995361328125, 52.24257278442383, 0.007606611, 0.20461796, -0.29158974
869, 3213342329, -104.90621185302734, 79.00546264648438, 52.23094177246094, 0.0065572695, 0.20106633, -0.3281021
870, 3213358996, -104.91424560546875, 79.0123519897461, 52.22435760498047, -0.004673293, 0.20292641, -0.30622387
871, 3213375663, -104.9151382446289, 79.0172119140625, 52.2324104309082, -0.039669387, 0.21216387, -0.22679806
872, 3213392330, -104.8858871459961, 79.01911163330078, 52.269283294677734, -0.06399465, 0.20183097, -0.17378616
873, 3213408997, -104.81659698486328, 79.01547241210938, 52.339656829833984, -0.09516149, 0.21313961, -0.20874214
874, 3213425664, -104.71196746826172, 79.00592803955078, 52.44809341430664, -0.10884319, 0.21860975, -0.26908588
875, 3213442331, -104.5882339477539, 78.99266052246094, 52.578792572021484, -0.09380536, 0.227235, -0.25155163
876, 3213458998, -104.44416809082031, 78.97891998291016, 52.714866638183594, -0.042856123, 0.21931516, -0.20455551
877, 3213475665, -104.28327941894531, 78.96902465820312, 52.83481216430664, -0.01435002, 0.1911124, -0.20723534
878, 3213492332, -104.08916473388672, 78.96306610107422, 52.96443557739258, 0.01260676, 0.12943333, -0.21829987
879, 3213508999, -103.93402099609375, 78.96137237548828, 53.05971145629883, 0.01872908, 0.0939962, -0.2338953
880, 3213525666, -103.85475158691406, 78.95697784423828, 53.10599136352539, 0.019639498, 0.084577635, -0.28130627
881, 3213542333, -103.84986114501953, 78.95085144042969, 53.096927642822266, 0.033416655, 0.09797578, -0.28613472
882, 3213559000, -103.88109588623047, 78.94684600830078, 53.06074142456055, 0.061183415, 0.13752149, -0.2815113
883, 3213575667, -103.90787506103516, 78.9437255859375, 53.028411865234375, 0.046582628, 0.17420745, -0.27346802
884, 3213592334, -103.94334411621094, 78.9422836303711, 52.9885139465332, 0.018395424, 0.1587503, -0.26846886
885, 3213609001, -104.02420806884766, 78.94027709960938, 52.914981842041016, -0.04486827, 0.18070921, -0.2579918
886, 3213625668, -104.11367797851562, 78.93229675292969, 52.842464447021484, -0.07856971, 0.23460512, -0.20185184
887, 3213642335, -104.19197845458984, 78.92144012451172, 52.76874923706055, -0.07976318, 0.253558, -0.11062622
888, 3213659002, -104.22740936279297, 78.91426086425781, 52.713958740234375, -0.04073592, 0.2545102, -0.108982086
889, 3213675669, -104.21160125732422, 78.91230773925781, 52.69247817993164, -0.089585714, 0.25925767, -0.14900589
890, 3213692336, -104.18895721435547, 78.91152954101562, 52.68087387084961, -0.102257706, 0.24779764, -0.20990753
891, 3213709003, -104.16838073730469, 78.91141510009766, 52.68144226074219, -0.11791634, 0.28304866, -0.22232533
892, 3213725670, -104.16558074951172, 78.91299438476562, 52.67060089111328, -0.042024948, 0.31052408, -0.18179035
893, 3213742337, -104.1642074584961, 78.91635131835938, 52.65467834472656, -0.014735594, 0.29222777, -0.119348526
894, 3213759004, -104.14508056640625, 78.9228744506836, 52.656734466552734, -0.007289414, 0.30034968, -0.19303131
895, 3213775671, -104.11771392822266, 78.92598724365234, 52.67908477783203, 0.027187543, 0.2855654, -0.33935833
896, 3213792338, -104.11009216308594, 78.92247009277344, 52.69725799560547, 0.041813042, 0.28130212, -0.403924
897, 3213809005, -104.12506866455078, 78.91558837890625, 52.711585998535156, 0.04864198, 0.29095587, -0.36096573
898, 3213825672, -104.15577697753906, 78.91289520263672, 52.716487884521484, 0.024798986, 0.30262938, -0.32130623
899, 3213842339, -104.19656372070312, 78.90992736816406, 52.71495056152344, -0.013921686, 0.27775475, -0.31506062
900, 3213859006, -104.2713394165039, 78.9052734375, 52.687599182128906, -0.024379987, 0.27195647, -0.3228531
901, 3213875673, -104.38288879394531, 78.89431762695312, 52.6273078918457, -0.033269737, 0.2201682, -0.28345776
902, 3213892340, -104.51527404785156, 78.88063049316406, 52.541316986083984, -0.041183155, 0.1799409, -0.25012112
903, 3213909007, -104.63811492919922, 78.86737823486328, 52.458255767822266, -0.017040292, 0.18123145, -0.2581396
904, 3213925674, -104.73512268066406, 78.85480499267578, 52.39946365356445, 0.037174243, 0.17803723, -0.26858044
905, 3213942341, -104.82561492919922, 78.84181213378906, 52.346336364746094, 0.049925838, 0.16392899, -0.1800232
906, 3213959008, -104.90650939941406, 78.82856750488281, 52.2935676574707, 0.01058609, 0.17425317, -0.16595745
907, 3213975675, -104.97235870361328, 78.81538391113281, 52.242103576660156, 0.0052318657, 0.13029788, -0.18711472
908, 3213992342, -105.02765655517578, 78.8017349243164, 52.194156646728516, -0.0013213247, 0.07801977, -0.20019531
909, 3214009009, -105.06771850585938, 78.78849792480469, 52.15538024902344, 0.0056967167, 0.059825923, -0.21336365
910, 3214025676, -105.1016845703125, 78.7747573852539, 52.119686126708984, 0.06514439, 0.084633686, -0.20551491
911, 3214042343, -105.13096618652344, 78.76444244384766, 52.076438903808594, 0.07164043, 0.10372778, -0.2018261
912, 3214059010, -105.11016845703125, 78.7612075805664, 52.065853118896484, 0.10294834, 0.11343897, -0.21027946
913, 3214075677, -105.05200958251953, 78.76456451416016, 52.08303451538086, 0.08397045, 0.11030487, -0.26543522
914, 3214092344, -104.98526000976562, 78.7718734741211, 52.10759735107422, 0.04284122, 0.14975077, -0.30335426
915, 3214109011, -104.93956756591797, 78.77923583984375, 52.12245178222656, 0.010191297, 0.18325178, -0.32949924
916, 3214125678, -104.92383575439453, 78.78651428222656, 52.12316131591797, -0.04732841, 0.21854773, -0.3004322
917, 3214142345, -104.94671630859375, 78.7931900024414, 52.08998107910156, -0.06323974, 0.2772837, -0.22015858
918, 3214159012, -104.94935607910156, 78.80126190185547, 52.06752395629883, -0.056828056, 0.29972953, -0.18601227
919, 3214175679, -104.92611694335938, 78.81158447265625, 52.0618782043457, -0.04422486, 0.2979506, -0.22305965
920, 3214192346, -104.87418365478516, 78.8205795288086, 52.085594177246094, -7.2993746E-4, 0.2718111, -0.26621628
921, 3214209013, -104.80748748779297, 78.82430267333984, 52.13369369506836, -0.007342854, 0.255856, -0.27566147
922, 3214225680, -104.73360443115234, 78.8221206665039, 52.199119567871094, 0.0047853566, 0.2504476, -0.2635193
923, 3214242347, -104.62890625, 78.8157958984375, 52.29893493652344, 0.039679542, 0.22883268, -0.2762537
924, 3214259014, -104.46234130859375, 78.80562591552734, 52.465370178222656, 0.06825498, 0.17145824, -0.26893425
925, 3214275681, -104.28219604492188, 78.79570770263672, 52.65027618408203, 0.04754365, 0.0967173, -0.23212528
926, 3214292348, -104.11471557617188, 78.78753662109375, 52.83384323120117, 0.054851785, 0.06135207, -0.23499203
927, 3214309015, -103.98140716552734, 78.78026580810547, 52.98654556274414, 0.046840955, 0.05851625, -0.25381184
928, 3214325682, -103.83914184570312, 78.77554321289062, 53.14151382446289, 0.030011714, 0.074578, -0.25158024
929, 3214342349, -103.71015930175781, 78.77386474609375, 53.27227783203125, 0.018954108, 0.04559005, -0.23875809
930, 3214359016, -103.63085174560547, 78.77593231201172, 53.34827423095703, -0.029058682, 0.051772084, -0.2151432
931, 3214375683, -103.60616302490234, 78.77902221679688, 53.37629318237305, -0.04654434, 0.09983009, -0.25444126
932, 3214392350, -103.58584594726562, 78.78504180908203, 53.39909362792969, -0.04099877, 0.13168456, -0.24670029
933, 3214409017, -103.529296875, 78.79116821289062, 53.442848205566406, -0.004818143, 0.17492683, -0.19815445
934, 3214425684, -103.45454406738281, 78.79830932617188, 53.49476623535156, -0.0067142593, 0.20347491, -0.2372446
935, 3214442351, -103.36520385742188, 78.80550384521484, 53.55073547363281, -0.064177945, 0.21210831, -0.2109909
936, 3214459018, -103.2536392211914, 78.81066131591797, 53.62107849121094, -0.045725483, 0.22238556, -0.19953823
937, 3214475685, -103.11954498291016, 78.8151626586914, 53.71527862548828, -0.010521257, 0.24101603, -0.21006584
938, 3214492352, -102.97067260742188, 78.81804656982422, 53.82793426513672, 0.0038449117, 0.26779544, -0.25964355
939, 3214509019, -102.81568908691406, 78.81877136230469, 53.95952606201172, 0.018433323, 0.25950646, -0.29942417
940, 3214525686, -102.68128967285156, 78.81620025634766, 54.083168029785156, 0.03065842, 0.29764584, -0.29632473
941, 3214542353, -102.52084350585938, 78.80866241455078, 54.23272705078125, 0.059714865, 0.28666174, -0.30160046
942, 3214559020, -102.33686065673828, 78.79820251464844, 54.400428771972656, 0.0528595, 0.25349408, -0.27418518
943, 3214575687, -102.1716079711914, 78.78913116455078, 54.55082702636719, 0.02565595, 0.23360334, -0.300642
944, 3214592354, -102.05084228515625, 78.77835083007812, 54.67229461669922, 0.01589891, 0.21301578, -0.34220314
945, 3214609021, -101.97477722167969, 78.76567077636719, 54.762290954589844, 0.03116856, 0.1934194, -0.34629917
946, 3214625688, -101.93428802490234, 78.75615692138672, 54.81969451904297, 0.032196146, 0.18851529, -0.26579094
947, 3214642355, -101.90349578857422, 78.7525863647461, 54.85673141479492, 0.02732253, 0.15723175, -0.21933746
948, 3214659022, -101.88429260253906, 78.75212860107422, 54.884334564208984, -0.012706488, 0.120210744, -0.24990845
949, 3214675689, -101.87728881835938, 78.74925994873047, 54.911556243896484, -0.0024328546, 0.11688789, -0.27535534
950, 3214692356, -101.88268280029297, 78.74359130859375, 54.926063537597656, -0.0013395131, 0.16134539, -0.25511074
951, 3214709023, -101.87703704833984, 78.74283599853516, 54.94914245605469, -0.017096044, 0.15856837, -0.17653465
952, 3214725690, -101.85472869873047, 78.7473373413086, 54.98892593383789, -0.04200621, 0.20871113, -0.15473175
953, 3214742357, -101.81581115722656, 78.74540710449219, 55.03425598144531, -0.048834577, 0.23678169, -0.12724209
954, 3214759024, -101.78350067138672, 78.7385025024414, 55.06427001953125, -0.051923484, 0.2544846, -0.11352444
955, 3214775691, -101.74854278564453, 78.73201751708984, 55.08671951293945, -0.0035273978, 0.2414967, -0.114346504
956, 3214792358, -101.70026397705078, 78.72453308105469, 55.08858108520508, 0.015326059, 0.28527394, -0.12853813
957, 3214809025, -101.60079956054688, 78.72054290771484, 55.10380172729492, 0.02603835, 0.28374445, -0.20034218
958, 3214825692, -101.51239013671875, 78.71870422363281, 55.108768463134766, -0.015029305, 0.22155677, -0.2594242
959, 3214842359, -101.4881591796875, 78.70685577392578, 55.070072174072266, 0.011252411, 0.18006316, -0.29613304
960, 3214859026, -101.508056640625, 78.69127655029297, 54.993446350097656, 0.0138229495, 0.1631269, -0.26260376
961, 3214875693, -101.50908660888672, 78.6850814819336, 54.9306640625, 0.023520017, 0.19692084, -0.25110245
962, 3214892360, -101.48622131347656, 78.68331909179688, 54.88727569580078, 0.061361402, 0.16772412, -0.33140373
963, 3214909027, -101.5634994506836, 78.68062591552734, 54.74823760986328, -0.022891494, 0.18467331, -0.36253738
964, 3214925694, -101.7444839477539, 78.67713928222656, 54.50261688232422, 0.0011172714, 0.2318055, -0.28743458
965, 3214942361, -101.94134521484375, 78.67357635498047, 54.215606689453125, 0.021431275, 0.26216292, -0.28912544
966, 3214959028, -102.1341552734375, 78.67569732666016, 53.90302658081055, -0.025495704, 0.22167456, -0.33799744
967, 3214975695, -102.36068725585938, 78.67813110351562, 53.561824798583984, -0.019266132, 0.14638802, -0.2779274
968, 3214992362, -102.63594055175781, 78.67144012451172, 53.18473434448242, -0.034261685, 0.17059503, -0.18418407
969, 3215009029, -102.92084503173828, 78.65696716308594, 52.77274703979492, -0.008834406, 0.2854076, -0.21145344
970, 3215025696, -103.15925598144531, 78.646728515625, 52.34910583496094, -0.04726138, 0.34780213, -0.31463146
971, 3215042363, -103.34015655517578, 78.64983367919922, 51.96030807495117, -0.09975587, 0.24942112, -0.3396454
972, 3215059030, -103.50387573242188, 78.65846252441406, 51.6136589050293, -0.14078453, 0.15591538, -0.3155403
973, 3215075697, -103.74854278564453, 78.66325378417969, 51.234683990478516, -0.10737372, 0.14941424, -0.24847794
974, 3215092364, -104.08525085449219, 78.65869903564453, 50.79132080078125, -0.075936, 0.28606093, -0.18009853
975, 3215109031, -104.35944366455078, 78.65276336669922, 50.39049530029297, -0.011965124, 0.3085614, -0.16695118
976, 3215125698, -104.52409362792969, 78.65264129638672, 50.08634567260742, -0.0078100734, 0.25241295, -0.2542591
977, 3215142365, -104.71671295166016, 78.65695190429688, 49.78309631347656, -0.058014423, 0.18020676, -0.27490044
978, 3215159032, -104.9839859008789, 78.65287017822266, 49.44527816772461, -0.060960896, 0.21312228, -0.24890137
979, 3215175699, -105.28724670410156, 78.64427947998047, 49.084800720214844, -0.04059526, 0.26274753, -0.2703457
980, 3215192366, -105.58675384521484, 78.63738250732422, 48.731815338134766, -0.0065461914, 0.29740533, -0.2901106
981, 3215209033, -105.9165267944336, 78.62914276123047, 48.35340881347656, 0.010609518, 0.2961873, -0.23390102
982, 3215225700, -106.25887298583984, 78.61485290527344, 47.946537017822266, 0.028662687, 0.30243403, -0.20776081
983, 3215242367, -106.54225158691406, 78.60176086425781, 47.579341888427734, 0.013729954, 0.28297645, -0.21469593
984, 3215259034, -106.75397491455078, 78.58772277832031, 47.28993606567383, 0.028679851, 0.2084569, -0.16796494
985, 3215275701, -106.89755249023438, 78.57671356201172, 47.090492248535156, -0.0025077874, 0.15247853, -0.13192272
986, 3215292368, -107.0213623046875, 78.56503295898438, 46.93329620361328, 0.023198633, 0.17852628, -0.15586281
987, 3215309035, -107.13790130615234, 78.54776000976562, 46.79328155517578, 0.06854469, 0.20224492, -0.16289616
988, 3215325702, -107.1312484741211, 78.52951049804688, 46.780540466308594, 0.058039133, 0.2101052, -0.19658089
989, 3215342369, -107.02058410644531, 78.51185607910156, 46.87372970581055, 0.03343114, 0.17959064, -0.22209358
990, 3215359036, -106.892822265625, 78.49182891845703, 46.980567932128906, -0.007709241, 0.22633235, -0.16911602
991, 3215375703, -106.716064453125, 78.46846771240234, 47.111473083496094, 0.016507605, 0.2565751, -0.20093155
992, 3215392370, -106.53144836425781, 78.4365005493164, 47.23527908325195, 0.03328066, 0.2738997, -0.34083557
993, 3215409037, -106.40514373779297, 78.40347290039062, 47.297019958496094, 0.044549093, 0.2526556, -0.34196758
994, 3215425704, -106.34290313720703, 78.37615203857422, 47.29804229736328, 0.02194933, 0.18549713, -0.23822498
995, 3215442371, -106.28339385986328, 78.35498809814453, 47.3038215637207, -0.054368466, 0.16511986, -0.15078354
996, 3215459038, -106.17024993896484, 78.33547973632812, 47.371124267578125, -0.05695725, 0.16976826, -0.15198708
997, 3215475705, -106.09674072265625, 78.31654357910156, 47.41107177734375, -0.062259674, 0.17043142, -0.17029
998, 3215492372, -106.10093688964844, 78.30033111572266, 47.405731201171875, -0.11353491, 0.11901819, -0.085476875
999, 3215509039, -106.16029357910156, 78.2862777709961, 47.37541580200195, -0.11612932, 0.1366138, -0.015402794
1000, 3215525706, -106.28292083740234, 78.25979614257812, 47.31827163696289, -0.10417754, 0.19950074, 0.03325081
1001, 3215542373, -106.49298095703125, 78.22130584716797, 47.19780349731445, -0.08597152, 0.3375485, 0.08198261
1002, 3215559040, -106.69633483886719, 78.17801666259766, 47.07390594482422, -0.07802854, 0.40792745, -0.0044670105
1003, 3215575707, -106.87010192871094, 78.12901306152344, 46.97612762451172, -0.05988256, 0.41338843, -0.17164612
1004, 3215592374, -107.03776550292969, 78.06524658203125, 46.907833099365234, -0.027546883, 0.40955073, -0.25863457
1005, 3215609041, -107.15770721435547, 77.97657775878906, 46.910186767578125, 0.0023313237, 0.42226383, -0.3560934
1006, 3215625708, -107.17723083496094, 77.86076354980469, 47.00465393066406, 0.015955165, 0.4766045, -0.35230064
1007, 3215642375, -107.0355224609375, 77.7308120727539, 47.21363830566406, 0.037479073, 0.47018343, -0.31477165
1008, 3215659042, -106.7309341430664, 77.59552764892578, 47.54867935180664, -0.021196293, 0.4046199, -0.34292316
1009, 3215675709, -106.3507308959961, 77.45133972167969, 47.94396209716797, -0.044196334, 0.30922973, -0.36979675
1010, 3215692376, -105.91020965576172, 77.29859161376953, 48.38643264770508, -0.0074337753, 0.23512098, -0.3737421
1011, 3215709043, -105.3559799194336, 77.14546966552734, 48.925636291503906, -0.0081055295, 0.20259203, -0.2969675
1012, 3215725710, -104.68431854248047, 77.0101318359375, 49.56266403198242, -0.010944451, 0.17078938, -0.2543249
1013, 3215742377, -103.99304962158203, 76.89112854003906, 50.20232009887695, -0.036904447, 0.1340416, -0.31594276
1014, 3215759044, -103.31939697265625, 76.77729797363281, 50.82514572143555, -0.07375865, 0.07467825, -0.40280628
1015, 3215775711, -102.69184112548828, 76.66999053955078, 51.408512115478516, -0.07281931, -0.0052555916, -0.3652382
1016, 3215792378, -102.09068298339844, 76.57564544677734, 51.94293212890625, 0.02465679, -0.006955947, -0.37938118
1017, 3215809045, -101.46866607666016, 76.49754333496094, 52.4741325378418, 0.045594968, -0.07921512, -0.4559126
1018, 3215825712, -100.91864013671875, 76.44175720214844, 52.97282409667969, -0.013907982, -0.14210977, -0.4963026
1019, 3215842379, -100.55026245117188, 76.39845275878906, 53.35907745361328, -0.018255854, -0.07674138, -0.54154205
1020, 3215859046, -100.37632751464844, 76.35944366455078, 53.574378967285156, 0.11130588, 0.016323486, -0.5181675
1021, 3215875713, -100.24474334716797, 76.33363342285156, 53.705810546875, 0.3028047, 0.02295981, -0.47790623
1022, 3215892380, -100.14569091796875, 76.32644653320312, 53.76191711425781, 0.31317696, -0.013010354, -0.4331169
1023, 3215909047, -100.13799285888672, 76.33185577392578, 53.693809509277344, 0.22287299, 0.044278365, -0.38212776
1024, 3215925714, -100.24759674072266, 76.33831024169922, 53.51426315307617, 0.0982704, 0.06830545, -0.35095215
1025, 3215942381, -100.4461669921875, 76.34637451171875, 53.285030364990234, 0.04624602, 0.14080076, -0.253994
1026, 3215959048, -100.67658996582031, 76.36173248291016, 53.031646728515625, 0.061963208, 0.2685822, -0.0846138
1027, 3215975715, -100.8427734375, 76.38353729248047, 52.7927131652832, 0.08998129, 0.30838796, 0.009500504
1028, 3215992382, -100.88141632080078, 76.41825103759766, 52.644283294677734, 0.049418084, 0.18876642, -0.08893776
1029, 3216009049, -100.90603637695312, 76.47210693359375, 52.550838470458984, -0.097278595, 0.07779514, -0.26983547
1030, 3216025716, -101.05094146728516, 76.52704620361328, 52.42381286621094, -0.16069588, 0.097040944, -0.26702213
1031, 3216042383, -101.26720428466797, 76.57271575927734, 52.28645706176758, -0.070535436, 0.21354495, -0.16141129
1032, 3216059050, -101.44104766845703, 76.62171173095703, 52.1883544921875, 0.03767649, 0.3647062, -0.17241573
1033, 3216075717, -101.55418395996094, 76.67778015136719, 52.111961364746094, 0.08607618, 0.4201745, -0.2898159
1034, 3216092384, -101.6017837524414, 76.73511505126953, 52.056663513183594, 0.019977896, 0.42727128, -0.32835865
1035, 3216109051, -101.66458129882812, 76.7866439819336, 51.985599517822266, -0.038812608, 0.4052575, -0.37424755
1036, 3216125718, -101.78996276855469, 76.83189392089844, 51.88849639892578, -0.07364687, 0.39626747, -0.36514854
1037, 3216142385, -101.97566986083984, 76.86914825439453, 51.749610900878906, -0.02772899, 0.39562598, -0.28931808
1038, 3216159052, -102.07916259765625, 76.907470703125, 51.670379638671875, 0.07313486, 0.3112012, -0.12265015
1039, 3216175719, -102.09019470214844, 76.95529174804688, 51.670230865478516, 0.029105857, 0.21008731, -0.06072998
1040, 3216192386, -102.10586547851562, 77.0047836303711, 51.69295883178711, -0.053492993, 0.16873495, -0.12018585
1041, 3216209053, -102.21605682373047, 77.04690551757812, 51.68292236328125, -0.058711085, 0.16062121, -0.14914417
1042, 3216225720, -102.42285919189453, 77.07933807373047, 51.62908935546875, 0.0034353102, 0.24455446, -0.12499237
1043, 3216242387, -102.60128784179688, 77.10955047607422, 51.59630584716797, 0.12318864, 0.35311952, -0.13131142
1044, 3216259054, -102.70417785644531, 77.13948059082031, 51.58988952636719, 0.15574788, 0.36788008, -0.17703152
1045, 3216275721, -102.73267364501953, 77.16839599609375, 51.62241744995117, 0.119633496, 0.29104897, -0.18702793
1046, 3216292388, -102.76439666748047, 77.18848419189453, 51.64638900756836, 0.07690572, 0.23684673, -0.22528076
1047, 3216309055, -102.86661529541016, 77.19985961914062, 51.60316467285156, 0.049803227, 0.22710325, -0.21586609
1048, 3216325722, -102.97974395751953, 77.21015930175781, 51.54384994506836, 0.082488224, 0.21790144, -0.19823647
1049, 3216342389, -103.04659271240234, 77.22010803222656, 51.51970672607422, 0.06364967, 0.19218092, -0.21553326
1050, 3216359056, -103.09136962890625, 77.23257446289062, 51.516178131103516, 0.024687523, 0.15216918, -0.309659
1051, 3216375723, -103.16258239746094, 77.24658203125, 51.508827209472656, -0.0259617, 0.141169, -0.34911823
1052, 3216392390, -103.2581558227539, 77.2535171508789, 51.51011276245117, -0.05842173, 0.14260763, -0.30148506
1053, 3216409057, -103.33378601074219, 77.25550079345703, 51.544219970703125, -0.039898768, 0.1653094, -0.22184277
1054, 3216425724, -103.38842010498047, 77.25872039794922, 51.59099197387695, -0.038188014, 0.16063362, -0.13162994
1055, 3216442391, -103.44400024414062, 77.2636947631836, 51.61252975463867, -0.050522517, 0.16172726, -0.13171005
1056, 3216459058, -103.49089050292969, 77.26985931396484, 51.62474060058594, -0.059131037, 0.17024893, -0.22143269
1057, 3216475725, -103.5263671875, 77.27971649169922, 51.652191162109375, -0.03482609, 0.09517292, -0.27144146
1058, 3216492392, -103.58260345458984, 77.2895736694336, 51.67440414428711, -0.033494424, 0.108422555, -0.3064394
